key_resp.keys,key_resp.rt,key_resp_16.keys,key_resp_16.rt,key_resp_2.keys,key_resp_2.rt,X Scale,ratio_pxpermm,screen_size_x,screen_size_y,testsize,key_resp_3.keys,key_resp_3.rt,key_resp_4.keys,key_resp_4.rt,line_size,key_resp_5.keys,key_resp_5.rt,key_resp_6.keys,key_resp_6.rt,key_resp_8.keys,key_resp_8.rt,key_resp_7.keys,key_resp_7.rt,key_resp_12.keys,key_resp_12.rt,key_resp_11.keys,key_resp_11.rt,key_resp_18.keys,key_resp_18.rt,key_resp_21.keys,key_resp_21.rt,key_resp_13.keys,key_resp_13.rt,key_resp_19.keys,key_resp_19.rt,ballposx,viewer_distance,trials.thisRepN,trials.thisTrialN,trials.thisN,trials.thisIndex,trials.ran,participant,session,date,expName,psychopyVersion,OS,frameRate,study_id,viewerdistancecm,DVA_to_distance,radius_F,radius_P,r_F,R_P,key_resp_20.keys,key_resp_20.rt,key_resp_14.keys,key_resp_14.rt,key_resp_15.keys,key_resp_15.rt,key_resp_17.keys,key_resp_17.rt,key_resp_9.keys,key_resp_9.rt,key_resp_10.keys,key_resp_10.rt,Colour_1,Ecc,mouse_5.x,mouse_5.y,mouse_5.leftButton,mouse_5.midButton,mouse_5.rightButton,mouse_5.clicked_name,Colour_2,similarity,response_time,mouse_10.x,mouse_10.y,mouse_10.leftButton,mouse_10.midButton,mouse_10.rightButton,mouse_10.clicked_name,mouse_7.x,mouse_7.y,mouse_7.leftButton,mouse_7.midButton,mouse_7.rightButton,catchnumberprac,mouse_6.x,mouse_6.y,mouse_6.leftButton,mouse_6.midButton,mouse_6.rightButton,duringprac.thisRepN,duringprac.thisTrialN,duringprac.thisN,duringprac.thisIndex,duringprac.ran,mouse_7.clicked_name,mouse_6.clicked_name,key_resp_22.keys,key_resp_22.rt,Colour1,mouse.x,mouse.y,mouse.leftButton,mouse.midButton,mouse.rightButton,mouse.clicked_name,Colour2,trialnumber,mouse_2.x,mouse_2.y,mouse_2.leftButton,mouse_2.midButton,mouse_2.rightButton,mouse_2.clicked_name,mouse_3.x,mouse_3.y,mouse_3.leftButton,mouse_3.midButton,mouse_3.rightButton,catchresponse,catchnumber,Catch,response_time_catch,mouse_11.x,mouse_11.y,mouse_11.leftButton,mouse_11.midButton,mouse_11.rightButton,trials_2.thisRepN,trials_2.thisTrialN,trials_2.thisN,trials_2.thisIndex,trials_2.ran,mouse_3.clicked_name,mouse_11.clicked_name,trials_3.thisRepN,trials_3.thisTrialN,trials_3.thisN,trials_3.thisIndex,trials_3.ran,answer1,rt1,answer2,rt2,answer3,rt3,answer4,rt4,answer5,rt5,answer6,rt6,answer7,rt7
space,12.41718,space,1.40997,space,6.59082,36,3.6,533.3333333,300,1920,space,34.371995,space,10.6377,72,space,15.66354,space,6.76564,space,0.22475,space,5.852385,space,4.91793,space,5.52242,space,5.91557,space,15.91013,space,8.3057,return,1.813715,-141.12,1051.877426,0,0,0,0,1,5dc04255aab19f4906f8d475,5ff3a3d73cc53c9e1d87196f,2021-01-05_00h25.33.527,Colour_Similarity_Experiment_v1,2020.1.2,Win32,60,5ff3a352adaa099f7659f8cc,,,,,,,,,,,,,,,,,,,,,,,,,,,,,,,,,,,,,,,,,,,,,,,,,,,,,,,,,,,,,,,,,,,,,,,,,,,,,,,,,,,,,,,,,,,,,,,,,,,,,,,,,,,,,,
,,,,,,,,,,,,,,,,,,,,,,,,,,,,,,,,,,return,1.39444,57.6,821.952793,1,0,1,0,1,5dc04255aab19f4906f8d475,5ff3a3d73cc53c9e1d87196f,2021-01-05_00h25.33.527,Colour_Similarity_Experiment_v1,2020.1.2,Win32,60,5ff3a352adaa099f7659f8cc,,,,,,,,,,,,,,,,,,,,,,,,,,,,,,,,,,,,,,,,,,,,,,,,,,,,,,,,,,,,,,,,,,,,,,,,,,,,,,,,,,,,,,,,,,,,,,,,,,,,,,,,,,,,,,
,,,,,,,,,,,,,,,,,,,,,,,,,,,,,,,,,,return,1.33971,80.64,795.2948646,2,0,2,0,1,5dc04255aab19f4906f8d475,5ff3a3d73cc53c9e1d87196f,2021-01-05_00h25.33.527,Colour_Similarity_Experiment_v1,2020.1.2,Win32,60,5ff3a352adaa099f7659f8cc,,,,,,,,,,,,,,,,,,,,,,,,,,,,,,,,,,,,,,,,,,,,,,,,,,,,,,,,,,,,,,,,,,,,,,,,,,,,,,,,,,,,,,,,,,,,,,,,,,,,,,,,,,,,,,
,,,,,,,,,,,,,,,,,,,,,,,,,,,,,,,,,,return,1.219575,141.12,725.3178025,3,0,3,0,1,5dc04255aab19f4906f8d475,5ff3a3d73cc53c9e1d87196f,2021-01-05_00h25.33.527,Colour_Similarity_Experiment_v1,2020.1.2,Win32,60,5ff3a352adaa099f7659f8cc,,,,,,,,,,,,,,,,,,,,,,,,,,,,,,,,,,,,,,,,,,,,,,,,,,,,,,,,,,,,,,,,,,,,,,,,,,,,,,,,,,,,,,,,,,,,,,,,,,,,,,,,,,,,,,
,,,,,,,,,,,,,,,,,,,,,,,,,,,,,,,,,,return,1.39749,74.88,801.9593467,4,0,4,0,1,5dc04255aab19f4906f8d475,5ff3a3d73cc53c9e1d87196f,2021-01-05_00h25.33.527,Colour_Similarity_Experiment_v1,2020.1.2,Win32,60,5ff3a352adaa099f7659f8cc,,,,,,,,,,,,,,,,,,,,,,,,,,,,,,,,,,,,,,,,,,,,,,,,,,,,,,,,,,,,,,,,,,,,,,,,,,,,,,,,,,,,,,,,,,,,,,,,,,,,,,,,,,,,,,
,,,,,,,,,,,,,,,,,,,,,,,,,,,,,,,,,,,,,,,,,,,5dc04255aab19f4906f8d475,5ff3a3d73cc53c9e1d87196f,2021-01-05_00h25.33.527,Colour_Similarity_Experiment_v1,2020.1.2,Win32,60,5ff3a352adaa099f7659f8cc,80,13.96404695,75.40585352,502.7056901,50.27056901,226.2175606,space,6.587955,space,5.87924,space,19.44794,space,4.995455,space,1.43871,space,4.91235,8,FF,59,142.5,1,0,0,response1disk_5,5,7,17.233765,-1,-0.5,1,0,0,rectangle_8,-1,-0.5,1,0,0,2,-1,-0.5,1,0,0,0,0,0,3,1,,,,,,,,,,,,,,,,,,,,,,,,,,,,,,,,,,,,,,,,,,,,,,,,,,,,,,,,,,,
,,,,,,,,,,,,,,,,,,,,,,,,,,,,,,,,,,,,,,,,,,,5dc04255aab19f4906f8d475,5ff3a3d73cc53c9e1d87196f,2021-01-05_00h25.33.527,Colour_Similarity_Experiment_v1,2020.1.2,Win32,60,5ff3a352adaa099f7659f8cc,,,,,,,,,,,,,,,,,,,8,FF,-56,-137.5,1,0,0,response5disk_5,7,3,8.040765,-2,-2.5,1,0,0,rectangle_8,-2,-2.5,1,0,0,2,-2,-2.5,1,0,0,0,1,1,0,1,,,,,,,,,,,,,,,,,,,,,,,,,,,,,,,,,,,,,,,,,,,,,,,,,,,,,,,,,,,
,,,,,,,,,,,,,,,,,,,,,,,,,,,,,,,,,,,,,,,,,,,5dc04255aab19f4906f8d475,5ff3a3d73cc53c9e1d87196f,2021-01-05_00h25.33.527,Colour_Similarity_Experiment_v1,2020.1.2,Win32,60,5ff3a352adaa099f7659f8cc,,,,,,,,,,,,,,,,,,,8,PF,-48,-136.5,1,0,0,response5disk_5,7,3,1.270625,0,-0.5,1,0,0,rectangle_8,0,-0.5,1,0,0,2,0,-0.5,1,0,0,0,2,2,6,1,,,,,,,,,,,,,,,,,,,,,,,,,,,,,,,,,,,,,,,,,,,,,,,,,,,,,,,,,,,
,,,,,,,,,,,,,,,,,,,,,,,,,,,,,,,,,,,,,,,,,,,5dc04255aab19f4906f8d475,5ff3a3d73cc53c9e1d87196f,2021-01-05_00h25.33.527,Colour_Similarity_Experiment_v1,2020.1.2,Win32,60,5ff3a352adaa099f7659f8cc,,,,,,,,,,,,,,,,,,,5,PF,69,-134.5,1,0,0,response3disk_5,8,4,4.90193,-5,-1.5,1,0,0,rectangle_8,-5,-1.5,1,0,0,2,-5,-1.5,1,0,0,0,3,3,1,1,,,,,,,,,,,,,,,,,,,,,,,,,,,,,,,,,,,,,,,,,,,,,,,,,,,,,,,,,,,
,,,,,,,,,,,,,,,,,,,,,,,,,,,,,,,,,,,,,,,,,,,5dc04255aab19f4906f8d475,5ff3a3d73cc53c9e1d87196f,2021-01-05_00h25.33.527,Colour_Similarity_Experiment_v1,2020.1.2,Win32,60,5ff3a352adaa099f7659f8cc,,,,,,,,,,,,,,,,,,,4,PF,121,-66.5,1,0,0,response3disk_5,9,5,5.826115,-8,-2.5,1,0,0,rectangle_8,-8,-2.5,1,0,0,2,-8,-2.5,1,0,0,0,4,4,2,1,,,,,,,,,,,,,,,,,,,,,,,,,,,,,,,,,,,,,,,,,,,,,,,,,,,,,,,,,,,
,,,,,,,,,,,,,,,,,,,,,,,,,,,,,,,,,,,,,,,,,,,5dc04255aab19f4906f8d475,5ff3a3d73cc53c9e1d87196f,2021-01-05_00h25.33.527,Colour_Similarity_Experiment_v1,2020.1.2,Win32,60,5ff3a352adaa099f7659f8cc,,,,,,,,,,,,,,,,,,,5,FF,47,-113.5,1,0,0,response3disk_5,2,4,4.14279,0,1.5,1,0,0,rectangle_8,-119,-63.5,1,0,0,2,0,1.5,1,0,0,0,5,5,5,1,response5disk_7,rectangle_4,,,,,,,,,,,,,,,,,,,,,,,,,,,,,,,,,,,,,,,,,,,,,,,,,,,,,,,,,
,,,,,,,,,,,,,,,,,,,,,,,,,,,,,,,,,,,,,,,,,,,5dc04255aab19f4906f8d475,5ff3a3d73cc53c9e1d87196f,2021-01-05_00h25.33.527,Colour_Similarity_Experiment_v1,2020.1.2,Win32,60,5ff3a352adaa099f7659f8cc,,,,,,,,,,,,,,,,,,,9,PF,-58,-109.5,1,0,0,response5disk_5,6,3,3.301165,-7,3.5,1,0,0,rectangle_8,-7,3.5,1,0,0,2,-7,3.5,1,0,0,0,6,6,4,1,,,,,,,,,,,,,,,,,,,,,,,,,,,,,,,,,,,,,,,,,,,,,,,,,,,,,,,,,,,
,,,,,,,,,,,,,,,,,,,,,,,,,,,,,,,,,,,,,,,,,,,5dc04255aab19f4906f8d475,5ff3a3d73cc53c9e1d87196f,2021-01-05_00h25.33.527,Colour_Similarity_Experiment_v1,2020.1.2,Win32,60,5ff3a352adaa099f7659f8cc,,,,,,,,,,,,,,,,,,,,PF,,,,,,,,1,5.906745,,,,,,,,,,,,,,,,,,,,,,,,,space,4.89448,8,-104,55.5,1,0,0,response7disk,9,1,-12,-4.5,1,0,0,rectangle,-12,-4.5,1,0,0,,2,0,0.00078,-12,-4.5,1,0,0,0,0,0,42,1,,,,,,,,,,,,,,,,,,,,,
,,,,,,,,,,,,,,,,,,,,,,,,,,,,,,,,,,,,,,,,,,,5dc04255aab19f4906f8d475,5ff3a3d73cc53c9e1d87196f,2021-01-05_00h25.33.527,Colour_Similarity_Experiment_v1,2020.1.2,Win32,60,5ff3a352adaa099f7659f8cc,,,,,,,,,,,,,,,,,,,,FF,,,,,,,,0,2.50496,,,,,,,,,,,,,,,,,,,,,,,,,,,5,-58,125.5,1,0,0,response7disk,3,2,0,-0.5,1,0,0,rectangle,0,-0.5,1,0,0,,5,0,0.000515,0,-0.5,1,0,0,0,1,1,25,1,,,,,,,,,,,,,,,,,,,,,
,,,,,,,,,,,,,,,,,,,,,,,,,,,,,,,,,,,,,,,,,,,5dc04255aab19f4906f8d475,5ff3a3d73cc53c9e1d87196f,2021-01-05_00h25.33.527,Colour_Similarity_Experiment_v1,2020.1.2,Win32,60,5ff3a352adaa099f7659f8cc,,,,,,,,,,,,,,,,,,,,FF,,,,,,,,0,1.61626,,,,,,,,,,,,,,,,,,,,,,,,,,,8,-57,131.5,1,0,0,response7disk,8,3,0,-4.5,1,0,0,rectangle,0,-4.5,1,0,0,,6,0,0.00046,0,-4.5,1,0,0,0,2,2,48,1,,,,,,,,,,,,,,,,,,,,,
,,,,,,,,,,,,,,,,,,,,,,,,,,,,,,,,,,,,,,,,,,,5dc04255aab19f4906f8d475,5ff3a3d73cc53c9e1d87196f,2021-01-05_00h25.33.527,Colour_Similarity_Experiment_v1,2020.1.2,Win32,60,5ff3a352adaa099f7659f8cc,,,,,,,,,,,,,,,,,,,,FF,,,,,,,,5,2.363395,,,,,,,,,,,,,,,,,,,,,,,,,,,3,106,-72.5,1,0,0,response3disk,6,4,-4,-5.5,1,0,0,rectangle,-4,-5.5,1,0,0,,7,0,0.000445,-4,-5.5,1,0,0,0,3,3,95,1,,,,,,,,,,,,,,,,,,,,,
,,,,,,,,,,,,,,,,,,,,,,,,,,,,,,,,,,,,,,,,,,,5dc04255aab19f4906f8d475,5ff3a3d73cc53c9e1d87196f,2021-01-05_00h25.33.527,Colour_Similarity_Experiment_v1,2020.1.2,Win32,60,5ff3a352adaa099f7659f8cc,,,,,,,,,,,,,,,,,,,,PF,,,,,,,,7,2.530435,,,,,,,,,,,,,,,,,,,,,,,,,,,7,62,110.5,1,0,0,response1disk,1,5,0,-4.5,1,0,0,rectangle,0,-4.5,1,0,0,,5,0,0.000485,0,-4.5,1,0,0,0,4,4,53,1,,,,,,,,,,,,,,,,,,,,,
,,,,,,,,,,,,,,,,,,,,,,,,,,,,,,,,,,,,,,,,,,,5dc04255aab19f4906f8d475,5ff3a3d73cc53c9e1d87196f,2021-01-05_00h25.33.527,Colour_Similarity_Experiment_v1,2020.1.2,Win32,60,5ff3a352adaa099f7659f8cc,,,,,,,,,,,,,,,,,,,,PF,,,,,,,,3,2.18389,,,,,,,,,,,,,,,,,,,,,,,,,,,8,-48,-108.5,1,0,0,response5disk,7,6,-5,6.5,1,0,0,rectangle,-5,6.5,1,0,0,,3,0,0.000605,-5,6.5,1,0,0,0,5,5,23,1,,,,,,,,,,,,,,,,,,,,,
,,,,,,,,,,,,,,,,,,,,,,,,,,,,,,,,,,,,,,,,,,,5dc04255aab19f4906f8d475,5ff3a3d73cc53c9e1d87196f,2021-01-05_00h25.33.527,Colour_Similarity_Experiment_v1,2020.1.2,Win32,60,5ff3a352adaa099f7659f8cc,,,,,,,,,,,,,,,,,,,,FF,,,,,,,,7,1.80405,,,,,,,,,,,,,,,,,,,,,,,,,,,3,61,133.5,1,0,0,response1disk,1,7,-4,1.5,1,0,0,rectangle,-4,1.5,1,0,0,,6,0,0.000485,-4,1.5,1,0,0,0,6,6,125,1,,,,,,,,,,,,,,,,,,,,,
,,,,,,,,,,,,,,,,,,,,,,,,,,,,,,,,,,,,,,,,,,,5dc04255aab19f4906f8d475,5ff3a3d73cc53c9e1d87196f,2021-01-05_00h25.33.527,Colour_Similarity_Experiment_v1,2020.1.2,Win32,60,5ff3a352adaa099f7659f8cc,,,,,,,,,,,,,,,,,,,,FF,,,,,,,,4,5.22414,,,,,,,,,,,,,,,,,,,,,,,,,,,5,83,-114.5,1,0,0,response3disk,2,8,10,16.5,1,0,0,rectangle,-66,132.5,1,0,0,0,0,1,3.019775,11,0.5,1,0,0,0,7,7,55,1,response7disk_3,rectangle,,,,,,,,,,,,,,,,,,,
,,,,,,,,,,,,,,,,,,,,,,,,,,,,,,,,,,,,,,,,,,,5dc04255aab19f4906f8d475,5ff3a3d73cc53c9e1d87196f,2021-01-05_00h25.33.527,Colour_Similarity_Experiment_v1,2020.1.2,Win32,60,5ff3a352adaa099f7659f8cc,,,,,,,,,,,,,,,,,,,,PF,,,,,,,,1,2.98125,,,,,,,,,,,,,,,,,,,,,,,,,,,5,-139,59.5,1,0,0,response7disk,3,9,-5,2.5,1,0,0,rectangle,-5,2.5,1,0,0,0,7,0,0.000445,-5,2.5,1,0,0,0,8,8,109,1,,,,,,,,,,,,,,,,,,,,,
,,,,,,,,,,,,,,,,,,,,,,,,,,,,,,,,,,,,,,,,,,,5dc04255aab19f4906f8d475,5ff3a3d73cc53c9e1d87196f,2021-01-05_00h25.33.527,Colour_Similarity_Experiment_v1,2020.1.2,Win32,60,5ff3a352adaa099f7659f8cc,,,,,,,,,,,,,,,,,,,,PF,,,,,,,,7,2.153805,,,,,,,,,,,,,,,,,,,,,,,,,,,8,57,122.5,1,0,0,response1disk,2,10,-4,-0.5,1,0,0,rectangle,-4,-0.5,1,0,0,0,4,0,0.00047,-4,-0.5,1,0,0,0,9,9,83,1,,,,,,,,,,,,,,,,,,,,,
,,,,,,,,,,,,,,,,,,,,,,,,,,,,,,,,,,,,,,,,,,,5dc04255aab19f4906f8d475,5ff3a3d73cc53c9e1d87196f,2021-01-05_00h25.33.527,Colour_Similarity_Experiment_v1,2020.1.2,Win32,60,5ff3a352adaa099f7659f8cc,,,,,,,,,,,,,,,,,,,,FF,,,,,,,,5,1.700715,,,,,,,,,,,,,,,,,,,,,,,,,,,4,106,-84.5,1,0,0,response3disk,6,11,4,-11.5,1,0,0,rectangle,4,-11.5,1,0,0,0,2,0,0.00049,4,-11.5,1,0,0,0,10,10,122,1,,,,,,,,,,,,,,,,,,,,,
,,,,,,,,,,,,,,,,,,,,,,,,,,,,,,,,,,,,,,,,,,,5dc04255aab19f4906f8d475,5ff3a3d73cc53c9e1d87196f,2021-01-05_00h25.33.527,Colour_Similarity_Experiment_v1,2020.1.2,Win32,60,5ff3a352adaa099f7659f8cc,,,,,,,,,,,,,,,,,,,,PF,,,,,,,,3,1.184045,,,,,,,,,,,,,,,,,,,,,,,,,,,7,-57,-112.5,1,0,0,response5disk,8,12,-5,-10.5,1,0,0,rectangle,-5,-10.5,1,0,0,0,0,0,0.0005,-5,-10.5,1,0,0,0,11,11,140,1,,,,,,,,,,,,,,,,,,,,,
,,,,,,,,,,,,,,,,,,,,,,,,,,,,,,,,,,,,,,,,,,,5dc04255aab19f4906f8d475,5ff3a3d73cc53c9e1d87196f,2021-01-05_00h25.33.527,Colour_Similarity_Experiment_v1,2020.1.2,Win32,60,5ff3a352adaa099f7659f8cc,,,,,,,,,,,,,,,,,,,,PF,,,,,,,,6,1.565085,,,,,,,,,,,,,,,,,,,,,,,,,,,3,95,68.5,1,0,0,response1disk,7,13,-2,-3.5,1,0,0,rectangle,-2,-3.5,1,0,0,0,6,0,0.00047,-2,-3.5,1,0,0,0,12,12,41,1,,,,,,,,,,,,,,,,,,,,,
,,,,,,,,,,,,,,,,,,,,,,,,,,,,,,,,,,,,,,,,,,,5dc04255aab19f4906f8d475,5ff3a3d73cc53c9e1d87196f,2021-01-05_00h25.33.527,Colour_Similarity_Experiment_v1,2020.1.2,Win32,60,5ff3a352adaa099f7659f8cc,,,,,,,,,,,,,,,,,,,,FF,,,,,,,,0,0.99387,,,,,,,,,,,,,,,,,,,,,,,,,,,7,-51,117.5,1,0,0,response7disk,7,14,22,2.5,1,0,0,rectangle,22,2.5,1,0,0,0,2,0,0.00044,22,2.5,1,0,0,0,13,13,34,1,,,,,,,,,,,,,,,,,,,,,
,,,,,,,,,,,,,,,,,,,,,,,,,,,,,,,,,,,,,,,,,,,5dc04255aab19f4906f8d475,5ff3a3d73cc53c9e1d87196f,2021-01-05_00h25.33.527,Colour_Similarity_Experiment_v1,2020.1.2,Win32,60,5ff3a352adaa099f7659f8cc,,,,,,,,,,,,,,,,,,,,PF,,,,,,,,7,1.854285,,,,,,,,,,,,,,,,,,,,,,,,,,,5,46,128.5,1,0,0,response1disk,1,15,2,1.5,1,0,0,rectangle,130,66.5,1,0,0,6,6,1,1.955585,-7,-8.5,1,0,0,0,14,14,159,1,response1disk_3,rectangle,,,,,,,,,,,,,,,,,,,
,,,,,,,,,,,,,,,,,,,,,,,,,,,,,,,,,,,,,,,,,,,5dc04255aab19f4906f8d475,5ff3a3d73cc53c9e1d87196f,2021-01-05_00h25.33.527,Colour_Similarity_Experiment_v1,2020.1.2,Win32,60,5ff3a352adaa099f7659f8cc,,,,,,,,,,,,,,,,,,,,FF,,,,,,,,7,1.53247,,,,,,,,,,,,,,,,,,,,,,,,,,,2,57,138.5,1,0,0,response1disk,7,16,-25,-14.5,1,0,0,rectangle,-25,-14.5,1,0,0,6,5,0,0.000475,-25,-14.5,1,0,0,0,15,15,63,1,,,,,,,,,,,,,,,,,,,,,
,,,,,,,,,,,,,,,,,,,,,,,,,,,,,,,,,,,,,,,,,,,5dc04255aab19f4906f8d475,5ff3a3d73cc53c9e1d87196f,2021-01-05_00h25.33.527,Colour_Similarity_Experiment_v1,2020.1.2,Win32,60,5ff3a352adaa099f7659f8cc,,,,,,,,,,,,,,,,,,,,FF,,,,,,,,2,2.11617,,,,,,,,,,,,,,,,,,,,,,,,,,,2,-118,-66.5,1,0,0,response5disk,1,17,-16,7.5,1,0,0,rectangle,-16,7.5,1,0,0,6,6,0,0.000445,-16,7.5,1,0,0,0,16,16,85,1,,,,,,,,,,,,,,,,,,,,,
,,,,,,,,,,,,,,,,,,,,,,,,,,,,,,,,,,,,,,,,,,,5dc04255aab19f4906f8d475,5ff3a3d73cc53c9e1d87196f,2021-01-05_00h25.33.527,Colour_Similarity_Experiment_v1,2020.1.2,Win32,60,5ff3a352adaa099f7659f8cc,,,,,,,,,,,,,,,,,,,,PF,,,,,,,,5,2.1151,,,,,,,,,,,,,,,,,,,,,,,,,,,2,101,-74.5,1,0,0,response3disk,4,18,14,3.5,1,0,0,rectangle,14,3.5,1,0,0,6,5,0,0.00047,14,3.5,1,0,0,0,17,17,127,1,,,,,,,,,,,,,,,,,,,,,
,,,,,,,,,,,,,,,,,,,,,,,,,,,,,,,,,,,,,,,,,,,5dc04255aab19f4906f8d475,5ff3a3d73cc53c9e1d87196f,2021-01-05_00h25.33.527,Colour_Similarity_Experiment_v1,2020.1.2,Win32,60,5ff3a352adaa099f7659f8cc,,,,,,,,,,,,,,,,,,,,PF,,,,,,,,5,1.389305,,,,,,,,,,,,,,,,,,,,,,,,,,,9,114,-52.5,1,0,0,response3disk,4,19,-4,7.5,1,0,0,rectangle,-4,7.5,1,0,0,6,0,0,0.000485,-4,7.5,1,0,0,0,18,18,114,1,,,,,,,,,,,,,,,,,,,,,
,,,,,,,,,,,,,,,,,,,,,,,,,,,,,,,,,,,,,,,,,,,5dc04255aab19f4906f8d475,5ff3a3d73cc53c9e1d87196f,2021-01-05_00h25.33.527,Colour_Similarity_Experiment_v1,2020.1.2,Win32,60,5ff3a352adaa099f7659f8cc,,,,,,,,,,,,,,,,,,,,FF,,,,,,,,6,2.07333,,,,,,,,,,,,,,,,,,,,,,,,,,,3,109,49.5,1,0,0,response1disk,8,20,-17,-0.5,1,0,0,rectangle,-17,-0.5,1,0,0,6,2,0,0.00134,-17,-0.5,1,0,0,0,19,19,44,1,,,,,,,,,,,,,,,,,,,,,
,,,,,,,,,,,,,,,,,,,,,,,,,,,,,,,,,,,,,,,,,,,5dc04255aab19f4906f8d475,5ff3a3d73cc53c9e1d87196f,2021-01-05_00h25.33.527,Colour_Similarity_Experiment_v1,2020.1.2,Win32,60,5ff3a352adaa099f7659f8cc,,,,,,,,,,,,,,,,,,,,PF,,,,,,,,7,1.260155,,,,,,,,,,,,,,,,,,,,,,,,,,,1,49,112.5,1,0,0,response1disk,5,21,4,-2.5,1,0,0,rectangle,4,-2.5,1,0,0,6,3,0,0.000445,4,-2.5,1,0,0,0,20,20,28,1,,,,,,,,,,,,,,,,,,,,,
,,,,,,,,,,,,,,,,,,,,,,,,,,,,,,,,,,,,,,,,,,,5dc04255aab19f4906f8d475,5ff3a3d73cc53c9e1d87196f,2021-01-05_00h25.33.527,Colour_Similarity_Experiment_v1,2020.1.2,Win32,60,5ff3a352adaa099f7659f8cc,,,,,,,,,,,,,,,,,,,,PF,,,,,,,,5,1.744925,,,,,,,,,,,,,,,,,,,,,,,,,,,7,119,-66.5,1,0,0,response3disk,9,22,9,-4.5,1,0,0,rectangle,9,-4.5,1,0,0,6,5,0,0.000485,9,-4.5,1,0,0,0,21,21,10,1,,,,,,,,,,,,,,,,,,,,,
,,,,,,,,,,,,,,,,,,,,,,,,,,,,,,,,,,,,,,,,,,,5dc04255aab19f4906f8d475,5ff3a3d73cc53c9e1d87196f,2021-01-05_00h25.33.527,Colour_Similarity_Experiment_v1,2020.1.2,Win32,60,5ff3a352adaa099f7659f8cc,,,,,,,,,,,,,,,,,,,,PF,,,,,,,,2,1.45662,,,,,,,,,,,,,,,,,,,,,,,,,,,3,-116,-57.5,1,0,0,response5disk,5,23,3,-0.5,1,0,0,rectangle,3,-0.5,1,0,0,6,2,0,0.000445,3,-0.5,1,0,0,0,22,22,66,1,,,,,,,,,,,,,,,,,,,,,
,,,,,,,,,,,,,,,,,,,,,,,,,,,,,,,,,,,,,,,,,,,5dc04255aab19f4906f8d475,5ff3a3d73cc53c9e1d87196f,2021-01-05_00h25.33.527,Colour_Similarity_Experiment_v1,2020.1.2,Win32,60,5ff3a352adaa099f7659f8cc,,,,,,,,,,,,,,,,,,,,PF,,,,,,,,4,2.09939,,,,,,,,,,,,,,,,,,,,,,,,,,,9,54,-86.5,1,0,0,response3disk,2,24,-5,10.5,1,0,0,rectangle,-5,10.5,1,0,0,6,0,0,0.000465,-5,10.5,1,0,0,0,23,23,157,1,,,,,,,,,,,,,,,,,,,,,
,,,,,,,,,,,,,,,,,,,,,,,,,,,,,,,,,,,,,,,,,,,5dc04255aab19f4906f8d475,5ff3a3d73cc53c9e1d87196f,2021-01-05_00h25.33.527,Colour_Similarity_Experiment_v1,2020.1.2,Win32,60,5ff3a352adaa099f7659f8cc,,,,,,,,,,,,,,,,,,,,FF,,,,,,,,2,1.94092,,,,,,,,,,,,,,,,,,,,,,,,,,,5,-120,-52.5,1,0,0,response5disk,4,25,5,8.5,1,0,0,rectangle,5,8.5,1,0,0,6,3,0,0.000505,5,8.5,1,0,0,0,24,24,8,1,,,,,,,,,,,,,,,,,,,,,
,,,,,,,,,,,,,,,,,,,,,,,,,,,,,,,,,,,,,,,,,,,5dc04255aab19f4906f8d475,5ff3a3d73cc53c9e1d87196f,2021-01-05_00h25.33.527,Colour_Similarity_Experiment_v1,2020.1.2,Win32,60,5ff3a352adaa099f7659f8cc,,,,,,,,,,,,,,,,,,,,FF,,,,,,,,2,1.316345,,,,,,,,,,,,,,,,,,,,,,,,,,,9,-121,-49.5,1,0,0,response5disk,8,26,-7,-1.5,1,0,0,rectangle,-7,-1.5,1,0,0,6,4,0,0.00044,-7,-1.5,1,0,0,0,25,25,6,1,,,,,,,,,,,,,,,,,,,,,
,,,,,,,,,,,,,,,,,,,,,,,,,,,,,,,,,,,,,,,,,,,5dc04255aab19f4906f8d475,5ff3a3d73cc53c9e1d87196f,2021-01-05_00h25.33.527,Colour_Similarity_Experiment_v1,2020.1.2,Win32,60,5ff3a352adaa099f7659f8cc,,,,,,,,,,,,,,,,,,,,PF,,,,,,,,0,0.876755,,,,,,,,,,,,,,,,,,,,,,,,,,,6,-68,131.5,1,0,0,response7disk,6,27,-3,1.5,1,0,0,rectangle,-3,1.5,1,0,0,6,1,0,0.00054,-3,1.5,1,0,0,0,26,26,0,1,,,,,,,,,,,,,,,,,,,,,
,,,,,,,,,,,,,,,,,,,,,,,,,,,,,,,,,,,,,,,,,,,5dc04255aab19f4906f8d475,5ff3a3d73cc53c9e1d87196f,2021-01-05_00h25.33.527,Colour_Similarity_Experiment_v1,2020.1.2,Win32,60,5ff3a352adaa099f7659f8cc,,,,,,,,,,,,,,,,,,,,FF,,,,,,,,2,1.418655,,,,,,,,,,,,,,,,,,,,,,,,,,,1,-113,-64.5,1,0,0,response5disk,9,28,3,-0.5,1,0,0,rectangle,3,-0.5,1,0,0,6,3,0,0.00046,3,-0.5,1,0,0,0,27,27,123,1,,,,,,,,,,,,,,,,,,,,,
,,,,,,,,,,,,,,,,,,,,,,,,,,,,,,,,,,,,,,,,,,,5dc04255aab19f4906f8d475,5ff3a3d73cc53c9e1d87196f,2021-01-05_00h25.33.527,Colour_Similarity_Experiment_v1,2020.1.2,Win32,60,5ff3a352adaa099f7659f8cc,,,,,,,,,,,,,,,,,,,,PF,,,,,,,,2,0.902975,,,,,,,,,,,,,,,,,,,,,,,,,,,1,-117,-57.5,1,0,0,response5disk,9,29,-1,-4.5,1,0,0,rectangle,-1,-4.5,1,0,0,6,4,0,0.00049,-1,-4.5,1,0,0,0,28,28,15,1,,,,,,,,,,,,,,,,,,,,,
,,,,,,,,,,,,,,,,,,,,,,,,,,,,,,,,,,,,,,,,,,,5dc04255aab19f4906f8d475,5ff3a3d73cc53c9e1d87196f,2021-01-05_00h25.33.527,Colour_Similarity_Experiment_v1,2020.1.2,Win32,60,5ff3a352adaa099f7659f8cc,,,,,,,,,,,,,,,,,,,,FF,,,,,,,,0,0.88067,,,,,,,,,,,,,,,,,,,,,,,,,,,3,-48,135.5,1,0,0,response7disk,3,30,-2,-3.5,1,0,0,rectangle,-2,-3.5,1,0,0,6,1,0,0.00041,-2,-3.5,1,0,0,0,29,29,68,1,,,,,,,,,,,,,,,,,,,,,
,,,,,,,,,,,,,,,,,,,,,,,,,,,,,,,,,,,,,,,,,,,5dc04255aab19f4906f8d475,5ff3a3d73cc53c9e1d87196f,2021-01-05_00h25.33.527,Colour_Similarity_Experiment_v1,2020.1.2,Win32,60,5ff3a352adaa099f7659f8cc,,,,,,,,,,,,,,,,,,,,PF,,,,,,,,3,1.141775,,,,,,,,,,,,,,,,,,,,,,,,,,,5,-49,-131.5,1,0,0,response5disk,2,31,-12,-4.5,1,0,0,rectangle,-12,-4.5,1,0,0,6,6,0,0.00044,-12,-4.5,1,0,0,0,30,30,129,1,,,,,,,,,,,,,,,,,,,,,
,,,,,,,,,,,,,,,,,,,,,,,,,,,,,,,,,,,,,,,,,,,5dc04255aab19f4906f8d475,5ff3a3d73cc53c9e1d87196f,2021-01-05_00h25.33.527,Colour_Similarity_Experiment_v1,2020.1.2,Win32,60,5ff3a352adaa099f7659f8cc,,,,,,,,,,,,,,,,,,,,PF,,,,,,,,7,1.27978,,,,,,,,,,,,,,,,,,,,,,,,,,,4,67,117.5,1,0,0,response1disk,9,32,-12,-0.5,1,0,0,rectangle,-12,-0.5,1,0,0,6,5,0,0.000455,-12,-0.5,1,0,0,0,31,31,75,1,,,,,,,,,,,,,,,,,,,,,
,,,,,,,,,,,,,,,,,,,,,,,,,,,,,,,,,,,,,,,,,,,5dc04255aab19f4906f8d475,5ff3a3d73cc53c9e1d87196f,2021-01-05_00h25.33.527,Colour_Similarity_Experiment_v1,2020.1.2,Win32,60,5ff3a352adaa099f7659f8cc,,,,,,,,,,,,,,,,,,,,PF,,,,,,,,6,2.23208,,,,,,,,,,,,,,,,,,,,,,,,,,,7,121,45.5,1,0,0,response1disk,3,33,21,1.5,1,0,0,rectangle,21,1.5,1,0,0,6,5,0,0.00045,21,1.5,1,0,0,0,32,32,81,1,,,,,,,,,,,,,,,,,,,,,
,,,,,,,,,,,,,,,,,,,,,,,,,,,,,,,,,,,,,,,,,,,5dc04255aab19f4906f8d475,5ff3a3d73cc53c9e1d87196f,2021-01-05_00h25.33.527,Colour_Similarity_Experiment_v1,2020.1.2,Win32,60,5ff3a352adaa099f7659f8cc,,,,,,,,,,,,,,,,,,,,FF,,,,,,,,7,1.188915,,,,,,,,,,,,,,,,,,,,,,,,,,,5,45,134.5,1,0,0,response1disk,1,34,-12,-2.5,1,0,0,rectangle,-12,-2.5,1,0,0,6,3,0,0.000465,-12,-2.5,1,0,0,0,33,33,131,1,,,,,,,,,,,,,,,,,,,,,
,,,,,,,,,,,,,,,,,,,,,,,,,,,,,,,,,,,,,,,,,,,5dc04255aab19f4906f8d475,5ff3a3d73cc53c9e1d87196f,2021-01-05_00h25.33.527,Colour_Similarity_Experiment_v1,2020.1.2,Win32,60,5ff3a352adaa099f7659f8cc,,,,,,,,,,,,,,,,,,,,FF,,,,,,,,3,1.505455,,,,,,,,,,,,,,,,,,,,,,,,,,,5,-53,-120.5,1,0,0,response5disk,6,35,15,7.5,1,0,0,rectangle,15,7.5,1,0,0,6,1,0,0.000465,15,7.5,1,0,0,0,34,34,12,1,,,,,,,,,,,,,,,,,,,,,
,,,,,,,,,,,,,,,,,,,,,,,,,,,,,,,,,,,,,,,,,,,5dc04255aab19f4906f8d475,5ff3a3d73cc53c9e1d87196f,2021-01-05_00h25.33.527,Colour_Similarity_Experiment_v1,2020.1.2,Win32,60,5ff3a352adaa099f7659f8cc,,,,,,,,,,,,,,,,,,,,PF,,,,,,,,7,1.032685,,,,,,,,,,,,,,,,,,,,,,,,,,,7,49,130.5,1,0,0,response1disk,2,36,-11,1.5,1,0,0,rectangle,-11,1.5,1,0,0,6,6,0,0.00046,-11,1.5,1,0,0,0,35,35,32,1,,,,,,,,,,,,,,,,,,,,,
,,,,,,,,,,,,,,,,,,,,,,,,,,,,,,,,,,,,,,,,,,,5dc04255aab19f4906f8d475,5ff3a3d73cc53c9e1d87196f,2021-01-05_00h25.33.527,Colour_Similarity_Experiment_v1,2020.1.2,Win32,60,5ff3a352adaa099f7659f8cc,,,,,,,,,,,,,,,,,,,,FF,,,,,,,,5,1.41464,,,,,,,,,,,,,,,,,,,,,,,,,,,6,111,-49.5,1,0,0,response3disk,3,37,-5,-10.5,1,0,0,rectangle,-5,-10.5,1,0,0,6,4,0,0.000445,-5,-10.5,1,0,0,0,36,36,21,1,,,,,,,,,,,,,,,,,,,,,
,,,,,,,,,,,,,,,,,,,,,,,,,,,,,,,,,,,,,,,,,,,5dc04255aab19f4906f8d475,5ff3a3d73cc53c9e1d87196f,2021-01-05_00h25.33.527,Colour_Similarity_Experiment_v1,2020.1.2,Win32,60,5ff3a352adaa099f7659f8cc,,,,,,,,,,,,,,,,,,,,FF,,,,,,,,0,2.655485,,,,,,,,,,,,,,,,,,,,,,,,,,,4,-51,133.5,1,0,0,response7disk,4,38,6,5.5,1,0,0,rectangle,6,5.5,1,0,0,6,3,0,0.000505,6,5.5,1,0,0,0,37,37,84,1,,,,,,,,,,,,,,,,,,,,,
,,,,,,,,,,,,,,,,,,,,,,,,,,,,,,,,,,,,,,,,,,,5dc04255aab19f4906f8d475,5ff3a3d73cc53c9e1d87196f,2021-01-05_00h25.33.527,Colour_Similarity_Experiment_v1,2020.1.2,Win32,60,5ff3a352adaa099f7659f8cc,,,,,,,,,,,,,,,,,,,,FF,,,,,,,,4,2.58669,,,,,,,,,,,,,,,,,,,,,,,,,,,6,48,-140.5,1,0,0,response3disk,4,39,-6,16.5,1,0,0,rectangle,-6,16.5,1,0,0,6,0,0,0.000505,-6,16.5,1,0,0,0,38,38,56,1,,,,,,,,,,,,,,,,,,,,,
,,,,,,,,,,,,,,,,,,,,,,,,,,,,,,,,,,,,,,,,,,,5dc04255aab19f4906f8d475,5ff3a3d73cc53c9e1d87196f,2021-01-05_00h25.33.527,Colour_Similarity_Experiment_v1,2020.1.2,Win32,60,5ff3a352adaa099f7659f8cc,,,,,,,,,,,,,,,,,,,,FF,,,,,,,,7,1.264645,,,,,,,,,,,,,,,,,,,,,,,,,,,2,51,138.5,1,0,0,response1disk,6,40,-3,-14.5,1,0,0,rectangle,-3,-14.5,1,0,0,6,4,0,0.00048,-3,-14.5,1,0,0,0,39,39,40,1,,,,,,,,,,,,,,,,,,,,,
,,,,,,,,,,,,,,,,,,,,,,,,,,,,,,,,,,,,,,,,,,,5dc04255aab19f4906f8d475,5ff3a3d73cc53c9e1d87196f,2021-01-05_00h25.33.527,Colour_Similarity_Experiment_v1,2020.1.2,Win32,60,5ff3a352adaa099f7659f8cc,,,,,,,,,,,,,,,,,,,,PF,,,,,,,,4,1.63248,,,,,,,,,,,,,,,,,,,,,,,,,,,2,63,-124.5,1,0,0,response3disk,5,41,3,-0.5,1,0,0,rectangle,3,-0.5,1,0,0,6,5,0,0.00044,3,-0.5,1,0,0,0,40,40,147,1,,,,,,,,,,,,,,,,,,,,,
,,,,,,,,,,,,,,,,,,,,,,,,,,,,,,,,,,,,,,,,,,,5dc04255aab19f4906f8d475,5ff3a3d73cc53c9e1d87196f,2021-01-05_00h25.33.527,Colour_Similarity_Experiment_v1,2020.1.2,Win32,60,5ff3a352adaa099f7659f8cc,,,,,,,,,,,,,,,,,,,,FF,,,,,,,,6,4.282075,,,,,,,,,,,,,,,,,,,,,,,,,,,8,123,50.5,1,0,0,response1disk,4,42,12,-1.5,1,0,0,rectangle,12,-1.5,1,0,0,6,0,0,0.00045,12,-1.5,1,0,0,0,41,41,88,1,,,,,,,,,,,,,,,,,,,,,
,,,,,,,,,,,,,,,,,,,,,,,,,,,,,,,,,,,,,,,,,,,5dc04255aab19f4906f8d475,5ff3a3d73cc53c9e1d87196f,2021-01-05_00h25.33.527,Colour_Similarity_Experiment_v1,2020.1.2,Win32,60,5ff3a352adaa099f7659f8cc,,,,,,,,,,,,,,,,,,,,FF,,,,,,,,2,2.427065,,,,,,,,,,,,,,,,,,,,,,,,,,,4,-98,-44.5,1,0,0,response5disk,5,43,-5,4.5,1,0,0,rectangle,-5,4.5,1,0,0,6,1,0,0.000465,-5,4.5,1,0,0,0,42,42,116,1,,,,,,,,,,,,,,,,,,,,,
,,,,,,,,,,,,,,,,,,,,,,,,,,,,,,,,,,,,,,,,,,,5dc04255aab19f4906f8d475,5ff3a3d73cc53c9e1d87196f,2021-01-05_00h25.33.527,Colour_Similarity_Experiment_v1,2020.1.2,Win32,60,5ff3a352adaa099f7659f8cc,,,,,,,,,,,,,,,,,,,,PF,,,,,,,,7,1.665245,,,,,,,,,,,,,,,,,,,,,,,,,,,1,61,129.5,1,0,0,response1disk,4,44,8,-2.5,1,0,0,rectangle,8,-2.5,1,0,0,6,3,0,0.00058,8,-2.5,1,0,0,0,43,43,139,1,,,,,,,,,,,,,,,,,,,,,
,,,,,,,,,,,,,,,,,,,,,,,,,,,,,,,,,,,,,,,,,,,5dc04255aab19f4906f8d475,5ff3a3d73cc53c9e1d87196f,2021-01-05_00h25.33.527,Colour_Similarity_Experiment_v1,2020.1.2,Win32,60,5ff3a352adaa099f7659f8cc,,,,,,,,,,,,,,,,,,,,PF,,,,,,,,5,4.410735,,,,,,,,,,,,,,,,,,,,,,,,,,,4,130,-55.5,1,0,0,response3disk,8,45,26,1.5,1,0,0,rectangle,26,1.5,1,0,0,6,6,0,0.00047,26,1.5,1,0,0,0,44,44,124,1,,,,,,,,,,,,,,,,,,,,,
,,,,,,,,,,,,,,,,,,,,,,,,,,,,,,,,,,,,,,,,,,,5dc04255aab19f4906f8d475,5ff3a3d73cc53c9e1d87196f,2021-01-05_00h25.33.527,Colour_Similarity_Experiment_v1,2020.1.2,Win32,60,5ff3a352adaa099f7659f8cc,,,,,,,,,,,,,,,,,,,,PF,,,,,,,,5,1.63045,,,,,,,,,,,,,,,,,,,,,,,,,,,5,120,-46.5,1,0,0,response3disk,9,46,-19,-3.5,1,0,0,rectangle,-53,-134.5,1,0,0,3,3,1,1.93562,4,3.5,1,0,0,0,45,45,136,1,response5disk_3,rectangle,,,,,,,,,,,,,,,,,,,
,,,,,,,,,,,,,,,,,,,,,,,,,,,,,,,,,,,,,,,,,,,5dc04255aab19f4906f8d475,5ff3a3d73cc53c9e1d87196f,2021-01-05_00h25.33.527,Colour_Similarity_Experiment_v1,2020.1.2,Win32,60,5ff3a352adaa099f7659f8cc,,,,,,,,,,,,,,,,,,,,FF,,,,,,,,2,5.187905,,,,,,,,,,,,,,,,,,,,,,,,,,,7,-116,-56.5,1,0,0,response5disk,6,47,6,1.5,1,0,0,rectangle,6,1.5,1,0,0,3,5,0,0.001285,6,1.5,1,0,0,0,46,46,31,1,,,,,,,,,,,,,,,,,,,,,
,,,,,,,,,,,,,,,,,,,,,,,,,,,,,,,,,,,,,,,,,,,5dc04255aab19f4906f8d475,5ff3a3d73cc53c9e1d87196f,2021-01-05_00h25.33.527,Colour_Similarity_Experiment_v1,2020.1.2,Win32,60,5ff3a352adaa099f7659f8cc,,,,,,,,,,,,,,,,,,,,PF,,,,,,,,7,2.183465,,,,,,,,,,,,,,,,,,,,,,,,,,,9,50,130.5,1,0,0,response1disk,7,48,-3,-1.5,1,0,0,rectangle,-3,-1.5,1,0,0,3,4,0,0.001625,-3,-1.5,1,0,0,0,47,47,121,1,,,,,,,,,,,,,,,,,,,,,
,,,,,,,,,,,,,,,,,,,,,,,,,,,,,,,,,,,,,,,,,,,5dc04255aab19f4906f8d475,5ff3a3d73cc53c9e1d87196f,2021-01-05_00h25.33.527,Colour_Similarity_Experiment_v1,2020.1.2,Win32,60,5ff3a352adaa099f7659f8cc,,,,,,,,,,,,,,,,,,,,FF,,,,,,,,4,1.549615,,,,,,,,,,,,,,,,,,,,,,,,,,,2,53,-132.5,1,0,0,response3disk,9,49,5,-10.5,1,0,0,rectangle,5,-10.5,1,0,0,3,0,0,0.00046,5,-10.5,1,0,0,0,48,48,72,1,,,,,,,,,,,,,,,,,,,,,
,,,,,,,,,,,,,,,,,,,,,,,,,,,,,,,,,,,,,,,,,,,5dc04255aab19f4906f8d475,5ff3a3d73cc53c9e1d87196f,2021-01-05_00h25.33.527,Colour_Similarity_Experiment_v1,2020.1.2,Win32,60,5ff3a352adaa099f7659f8cc,,,,,,,,,,,,,,,,,,,,PF,,,,,,,,3,1.261055,,,,,,,,,,,,,,,,,,,,,,,,,,,9,-54,-138.5,1,0,0,response5disk,1,50,-2,6.5,1,0,0,rectangle,-2,6.5,1,0,0,3,4,0,0.000445,-2,6.5,1,0,0,0,49,49,74,1,,,,,,,,,,,,,,,,,,,,,
,,,,,,,,,,,,,,,,,,,,,,,,,,,,,,,,,,,,,,,,,,,5dc04255aab19f4906f8d475,5ff3a3d73cc53c9e1d87196f,2021-01-05_00h25.33.527,Colour_Similarity_Experiment_v1,2020.1.2,Win32,60,5ff3a352adaa099f7659f8cc,,,,,,,,,,,,,,,,,,,,PF,,,,,,,,2,2.181135,,,,,,,,,,,,,,,,,,,,,,,,,,,9,-118,-53.5,1,0,0,response5disk,8,51,-6,1.5,1,0,0,rectangle,-6,1.5,1,0,0,3,3,0,0.00049,-6,1.5,1,0,0,0,50,50,67,1,,,,,,,,,,,,,,,,,,,,,
,,,,,,,,,,,,,,,,,,,,,,,,,,,,,,,,,,,,,,,,,,,5dc04255aab19f4906f8d475,5ff3a3d73cc53c9e1d87196f,2021-01-05_00h25.33.527,Colour_Similarity_Experiment_v1,2020.1.2,Win32,60,5ff3a352adaa099f7659f8cc,,,,,,,,,,,,,,,,,,,,FF,,,,,,,,7,2.004535,,,,,,,,,,,,,,,,,,,,,,,,,,,2,63,124.5,1,0,0,response1disk,8,52,-1,-10.5,1,0,0,rectangle,-1,-10.5,1,0,0,3,3,0,0.00042,-1,-10.5,1,0,0,0,51,51,62,1,,,,,,,,,,,,,,,,,,,,,
,,,,,,,,,,,,,,,,,,,,,,,,,,,,,,,,,,,,,,,,,,,5dc04255aab19f4906f8d475,5ff3a3d73cc53c9e1d87196f,2021-01-05_00h25.33.527,Colour_Similarity_Experiment_v1,2020.1.2,Win32,60,5ff3a352adaa099f7659f8cc,,,,,,,,,,,,,,,,,,,,PF,,,,,,,,3,2.981925,,,,,,,,,,,,,,,,,,,,,,,,,,,4,-52,-136.5,1,0,0,response5disk,5,53,4,-1.5,1,0,0,rectangle,4,-1.5,1,0,0,3,5,0,0.000525,4,-1.5,1,0,0,0,52,52,49,1,,,,,,,,,,,,,,,,,,,,,
,,,,,,,,,,,,,,,,,,,,,,,,,,,,,,,,,,,,,,,,,,,5dc04255aab19f4906f8d475,5ff3a3d73cc53c9e1d87196f,2021-01-05_00h25.33.527,Colour_Similarity_Experiment_v1,2020.1.2,Win32,60,5ff3a352adaa099f7659f8cc,,,,,,,,,,,,,,,,,,,,FF,,,,,,,,0,1.39892,,,,,,,,,,,,,,,,,,,,,,,,,,,1,-52,131.5,1,0,0,response7disk,1,54,4,-8.5,1,0,0,rectangle,4,-8.5,1,0,0,3,4,0,0.00044,4,-8.5,1,0,0,0,53,53,151,1,,,,,,,,,,,,,,,,,,,,,
,,,,,,,,,,,,,,,,,,,,,,,,,,,,,,,,,,,,,,,,,,,5dc04255aab19f4906f8d475,5ff3a3d73cc53c9e1d87196f,2021-01-05_00h25.33.527,Colour_Similarity_Experiment_v1,2020.1.2,Win32,60,5ff3a352adaa099f7659f8cc,,,,,,,,,,,,,,,,,,,,PF,,,,,,,,7,1.276885,,,,,,,,,,,,,,,,,,,,,,,,,,,6,56,133.5,1,0,0,response1disk,1,55,4,6.5,1,0,0,rectangle,4,6.5,1,0,0,3,7,0,0.000415,4,6.5,1,0,0,0,54,54,46,1,,,,,,,,,,,,,,,,,,,,,
,,,,,,,,,,,,,,,,,,,,,,,,,,,,,,,,,,,,,,,,,,,5dc04255aab19f4906f8d475,5ff3a3d73cc53c9e1d87196f,2021-01-05_00h25.33.527,Colour_Similarity_Experiment_v1,2020.1.2,Win32,60,5ff3a352adaa099f7659f8cc,,,,,,,,,,,,,,,,,,,,FF,,,,,,,,3,3.11468,,,,,,,,,,,,,,,,,,,,,,,,,,,9,-62,-137.5,1,0,0,response5disk,2,56,6,4.5,1,0,0,rectangle,-55,139.5,1,0,0,0,0,1,1.91066,-3,-3.5,1,0,0,0,55,55,11,1,response7disk_3,rectangle,,,,,,,,,,,,,,,,,,,
,,,,,,,,,,,,,,,,,,,,,,,,,,,,,,,,,,,,,,,,,,,5dc04255aab19f4906f8d475,5ff3a3d73cc53c9e1d87196f,2021-01-05_00h25.33.527,Colour_Similarity_Experiment_v1,2020.1.2,Win32,60,5ff3a352adaa099f7659f8cc,,,,,,,,,,,,,,,,,,,,PF,,,,,,,,7,1.36051,,,,,,,,,,,,,,,,,,,,,,,,,,,8,49,134.5,1,0,0,response1disk,1,57,3,-5.5,1,0,0,rectangle,3,-5.5,1,0,0,0,6,0,0.00046,3,-5.5,1,0,0,0,56,56,57,1,,,,,,,,,,,,,,,,,,,,,
,,,,,,,,,,,,,,,,,,,,,,,,,,,,,,,,,,,,,,,,,,,5dc04255aab19f4906f8d475,5ff3a3d73cc53c9e1d87196f,2021-01-05_00h25.33.527,Colour_Similarity_Experiment_v1,2020.1.2,Win32,60,5ff3a352adaa099f7659f8cc,,,,,,,,,,,,,,,,,,,,FF,,,,,,,,2,1.233355,,,,,,,,,,,,,,,,,,,,,,,,,,,3,-112,-59.5,1,0,0,response5disk,4,58,4,-2.5,1,0,0,rectangle,4,-2.5,1,0,0,0,0,0,0.00046,4,-2.5,1,0,0,0,57,57,110,1,,,,,,,,,,,,,,,,,,,,,
,,,,,,,,,,,,,,,,,,,,,,,,,,,,,,,,,,,,,,,,,,,5dc04255aab19f4906f8d475,5ff3a3d73cc53c9e1d87196f,2021-01-05_00h25.33.527,Colour_Similarity_Experiment_v1,2020.1.2,Win32,60,5ff3a352adaa099f7659f8cc,,,,,,,,,,,,,,,,,,,,PF,,,,,,,,7,0.97427,,,,,,,,,,,,,,,,,,,,,,,,,,,1,51,147.5,1,0,0,response1disk,7,59,-2,-14.5,1,0,0,rectangle,-2,-14.5,1,0,0,0,1,0,0.000405,-2,-14.5,1,0,0,0,58,58,150,1,,,,,,,,,,,,,,,,,,,,,
,,,,,,,,,,,,,,,,,,,,,,,,,,,,,,,,,,,,,,,,,,,5dc04255aab19f4906f8d475,5ff3a3d73cc53c9e1d87196f,2021-01-05_00h25.33.527,Colour_Similarity_Experiment_v1,2020.1.2,Win32,60,5ff3a352adaa099f7659f8cc,,,,,,,,,,,,,,,,,,,,FF,,,,,,,,0,0.806995,,,,,,,,,,,,,,,,,,,,,,,,,,,2,-45,142.5,1,0,0,response7disk,2,60,3,-0.5,1,0,0,rectangle,3,-0.5,1,0,0,0,2,0,0.000425,3,-0.5,1,0,0,0,59,59,142,1,,,,,,,,,,,,,,,,,,,,,
,,,,,,,,,,,,,,,,,,,,,,,,,,,,,,,,,,,,,,,,,,,5dc04255aab19f4906f8d475,5ff3a3d73cc53c9e1d87196f,2021-01-05_00h25.33.527,Colour_Similarity_Experiment_v1,2020.1.2,Win32,60,5ff3a352adaa099f7659f8cc,,,,,,,,,,,,,,,,,,,,FF,,,,,,,,1,1.24104,,,,,,,,,,,,,,,,,,,,,,,,,,,3,-125,49.5,1,0,0,response7disk,5,61,5,-3.5,1,0,0,rectangle,5,-3.5,1,0,0,0,0,0,0.0005,5,-3.5,1,0,0,0,60,60,101,1,,,,,,,,,,,,,,,,,,,,,
,,,,,,,,,,,,,,,,,,,,,,,,,,,,,,,,,,,,,,,,,,,5dc04255aab19f4906f8d475,5ff3a3d73cc53c9e1d87196f,2021-01-05_00h25.33.527,Colour_Similarity_Experiment_v1,2020.1.2,Win32,60,5ff3a352adaa099f7659f8cc,,,,,,,,,,,,,,,,,,,,FF,,,,,,,,0,0.88961,,,,,,,,,,,,,,,,,,,,,,,,,,,5,-61,153.5,1,0,0,response7disk,5,62,-5,18.5,1,0,0,rectangle,-5,18.5,1,0,0,0,4,0,0.000425,-5,18.5,1,0,0,0,61,61,19,1,,,,,,,,,,,,,,,,,,,,,
,,,,,,,,,,,,,,,,,,,,,,,,,,,,,,,,,,,,,,,,,,,5dc04255aab19f4906f8d475,5ff3a3d73cc53c9e1d87196f,2021-01-05_00h25.33.527,Colour_Similarity_Experiment_v1,2020.1.2,Win32,60,5ff3a352adaa099f7659f8cc,,,,,,,,,,,,,,,,,,,,PF,,,,,,,,7,1.251775,,,,,,,,,,,,,,,,,,,,,,,,,,,3,50,138.5,1,0,0,response1disk,8,63,7,8.5,1,0,0,rectangle,7,8.5,1,0,0,0,4,0,0.000425,7,8.5,1,0,0,0,62,62,3,1,,,,,,,,,,,,,,,,,,,,,
,,,,,,,,,,,,,,,,,,,,,,,,,,,,,,,,,,,,,,,,,,,5dc04255aab19f4906f8d475,5ff3a3d73cc53c9e1d87196f,2021-01-05_00h25.33.527,Colour_Similarity_Experiment_v1,2020.1.2,Win32,60,5ff3a352adaa099f7659f8cc,,,,,,,,,,,,,,,,,,,,FF,,,,,,,,7,1.367265,,,,,,,,,,,,,,,,,,,,,,,,,,,6,60,142.5,1,0,0,response1disk,2,64,4,-12.5,1,0,0,rectangle,4,-12.5,1,0,0,0,7,0,0.00054,4,-12.5,1,0,0,0,63,63,112,1,,,,,,,,,,,,,,,,,,,,,
,,,,,,,,,,,,,,,,,,,,,,,,,,,,,,,,,,,,,,,,,,,5dc04255aab19f4906f8d475,5ff3a3d73cc53c9e1d87196f,2021-01-05_00h25.33.527,Colour_Similarity_Experiment_v1,2020.1.2,Win32,60,5ff3a352adaa099f7659f8cc,,,,,,,,,,,,,,,,,,,,FF,,,,,,,,0,0.73775,,,,,,,,,,,,,,,,,,,,,,,,,,,9,-49,139.5,1,0,0,response7disk,9,65,-7,-0.5,1,0,0,rectangle,-7,-0.5,1,0,0,0,6,0,0.000455,-7,-0.5,1,0,0,0,64,64,17,1,,,,,,,,,,,,,,,,,,,,,
,,,,,,,,,,,,,,,,,,,,,,,,,,,,,,,,,,,,,,,,,,,5dc04255aab19f4906f8d475,5ff3a3d73cc53c9e1d87196f,2021-01-05_00h25.33.527,Colour_Similarity_Experiment_v1,2020.1.2,Win32,60,5ff3a352adaa099f7659f8cc,,,,,,,,,,,,,,,,,,,,FF,,,,,,,,4,1.78463,,,,,,,,,,,,,,,,,,,,,,,,,,,5,58,-134.5,1,0,0,response3disk,8,66,-3,4.5,1,0,0,rectangle,-3,4.5,1,0,0,0,3,0,0.00045,-3,4.5,1,0,0,0,65,65,16,1,,,,,,,,,,,,,,,,,,,,,
,,,,,,,,,,,,,,,,,,,,,,,,,,,,,,,,,,,,,,,,,,,5dc04255aab19f4906f8d475,5ff3a3d73cc53c9e1d87196f,2021-01-05_00h25.33.527,Colour_Similarity_Experiment_v1,2020.1.2,Win32,60,5ff3a352adaa099f7659f8cc,,,,,,,,,,,,,,,,,,,,FF,,,,,,,,4,2.390995,,,,,,,,,,,,,,,,,,,,,,,,,,,7,57,-137.5,1,0,0,response3disk,8,67,5,-4.5,1,0,0,rectangle,117,-52.5,1,0,0,5,5,1,2.73829,-4,0.5,1,0,0,0,66,66,97,1,response3disk_3,rectangle,,,,,,,,,,,,,,,,,,,
,,,,,,,,,,,,,,,,,,,,,,,,,,,,,,,,,,,,,,,,,,,5dc04255aab19f4906f8d475,5ff3a3d73cc53c9e1d87196f,2021-01-05_00h25.33.527,Colour_Similarity_Experiment_v1,2020.1.2,Win32,60,5ff3a352adaa099f7659f8cc,,,,,,,,,,,,,,,,,,,,FF,,,,,,,,3,2.46017,,,,,,,,,,,,,,,,,,,,,,,,,,,8,-39,-139.5,1,0,0,response5disk,7,68,-6,1.5,1,0,0,rectangle,-6,1.5,1,0,0,5,6,0,0.000435,-6,1.5,1,0,0,0,67,67,86,1,,,,,,,,,,,,,,,,,,,,,
,,,,,,,,,,,,,,,,,,,,,,,,,,,,,,,,,,,,,,,,,,,5dc04255aab19f4906f8d475,5ff3a3d73cc53c9e1d87196f,2021-01-05_00h25.33.527,Colour_Similarity_Experiment_v1,2020.1.2,Win32,60,5ff3a352adaa099f7659f8cc,,,,,,,,,,,,,,,,,,,,PF,,,,,,,,5,1.41527,,,,,,,,,,,,,,,,,,,,,,,,,,,4,118,-55.5,1,0,0,response3disk,7,69,26,-3.5,1,0,0,rectangle,26,-3.5,1,0,0,5,5,0,0.000425,26,-3.5,1,0,0,0,68,68,38,1,,,,,,,,,,,,,,,,,,,,,
,,,,,,,,,,,,,,,,,,,,,,,,,,,,,,,,,,,,,,,,,,,5dc04255aab19f4906f8d475,5ff3a3d73cc53c9e1d87196f,2021-01-05_00h25.33.527,Colour_Similarity_Experiment_v1,2020.1.2,Win32,60,5ff3a352adaa099f7659f8cc,,,,,,,,,,,,,,,,,,,,PF,,,,,,,,7,1.14254,,,,,,,,,,,,,,,,,,,,,,,,,,,8,54,145.5,1,0,0,response1disk,4,70,-3,6.5,1,0,0,rectangle,-3,6.5,1,0,0,5,4,0,0.000425,-3,6.5,1,0,0,0,69,69,78,1,,,,,,,,,,,,,,,,,,,,,
,,,,,,,,,,,,,,,,,,,,,,,,,,,,,,,,,,,,,,,,,,,5dc04255aab19f4906f8d475,5ff3a3d73cc53c9e1d87196f,2021-01-05_00h25.33.527,Colour_Similarity_Experiment_v1,2020.1.2,Win32,60,5ff3a352adaa099f7659f8cc,,,,,,,,,,,,,,,,,,,,PF,,,,,,,,7,1.0992,,,,,,,,,,,,,,,,,,,,,,,,,,,4,50,147.5,1,0,0,response1disk,1,71,-4,6.5,1,0,0,rectangle,-4,6.5,1,0,0,5,0,0,0.000435,-4,6.5,1,0,0,0,70,70,115,1,,,,,,,,,,,,,,,,,,,,,
,,,,,,,,,,,,,,,,,,,,,,,,,,,,,,,,,,,,,,,,,,,5dc04255aab19f4906f8d475,5ff3a3d73cc53c9e1d87196f,2021-01-05_00h25.33.527,Colour_Similarity_Experiment_v1,2020.1.2,Win32,60,5ff3a352adaa099f7659f8cc,,,,,,,,,,,,,,,,,,,,FF,,,,,,,,5,2.93704,,,,,,,,,,,,,,,,,,,,,,,,,,,4,125,-47.5,1,0,0,response3disk,9,72,-2,3.5,1,0,0,rectangle,-2,3.5,1,0,0,5,3,0,0.00045,-2,3.5,1,0,0,0,71,71,90,1,,,,,,,,,,,,,,,,,,,,,
,,,,,,,,,,,,,,,,,,,,,,,,,,,,,,,,,,,,,,,,,,,5dc04255aab19f4906f8d475,5ff3a3d73cc53c9e1d87196f,2021-01-05_00h25.33.527,Colour_Similarity_Experiment_v1,2020.1.2,Win32,60,5ff3a352adaa099f7659f8cc,,,,,,,,,,,,,,,,,,,,PF,,,,,,,,5,1.68922,,,,,,,,,,,,,,,,,,,,,,,,,,,5,117,-51.5,1,0,0,response3disk,8,73,12,3.5,1,0,0,rectangle,12,3.5,1,0,0,5,5,0,0.000455,12,3.5,1,0,0,0,72,72,149,1,,,,,,,,,,,,,,,,,,,,,
,,,,,,,,,,,,,,,,,,,,,,,,,,,,,,,,,,,,,,,,,,,5dc04255aab19f4906f8d475,5ff3a3d73cc53c9e1d87196f,2021-01-05_00h25.33.527,Colour_Similarity_Experiment_v1,2020.1.2,Win32,60,5ff3a352adaa099f7659f8cc,,,,,,,,,,,,,,,,,,,,PF,,,,,,,,7,1.0992,,,,,,,,,,,,,,,,,,,,,,,,,,,2,52,143.5,1,0,0,response1disk,6,74,-5,10.5,1,0,0,rectangle,-5,10.5,1,0,0,5,1,0,0.000495,-5,10.5,1,0,0,0,73,73,113,1,,,,,,,,,,,,,,,,,,,,,
,,,,,,,,,,,,,,,,,,,,,,,,,,,,,,,,,,,,,,,,,,,5dc04255aab19f4906f8d475,5ff3a3d73cc53c9e1d87196f,2021-01-05_00h25.33.527,Colour_Similarity_Experiment_v1,2020.1.2,Win32,60,5ff3a352adaa099f7659f8cc,,,,,,,,,,,,,,,,,,,,FF,,,,,,,,7,0.89645,,,,,,,,,,,,,,,,,,,,,,,,,,,1,61,136.5,1,0,0,response1disk,7,75,3,-6.5,1,0,0,rectangle,3,-6.5,1,0,0,5,4,0,0.000405,3,-6.5,1,0,0,0,74,74,137,1,,,,,,,,,,,,,,,,,,,,,
,,,,,,,,,,,,,,,,,,,,,,,,,,,,,,,,,,,,,,,,,,,5dc04255aab19f4906f8d475,5ff3a3d73cc53c9e1d87196f,2021-01-05_00h25.33.527,Colour_Similarity_Experiment_v1,2020.1.2,Win32,60,5ff3a352adaa099f7659f8cc,,,,,,,,,,,,,,,,,,,,PF,,,,,,,,7,1.08835,,,,,,,,,,,,,,,,,,,,,,,,,,,2,52,146.5,1,0,0,response1disk,8,76,13,1.5,1,0,0,rectangle,13,1.5,1,0,0,5,0,0,0.00048,13,1.5,1,0,0,0,75,75,52,1,,,,,,,,,,,,,,,,,,,,,
,,,,,,,,,,,,,,,,,,,,,,,,,,,,,,,,,,,,,,,,,,,5dc04255aab19f4906f8d475,5ff3a3d73cc53c9e1d87196f,2021-01-05_00h25.33.527,Colour_Similarity_Experiment_v1,2020.1.2,Win32,60,5ff3a352adaa099f7659f8cc,,,,,,,,,,,,,,,,,,,,PF,,,,,,,,5,1.412875,,,,,,,,,,,,,,,,,,,,,,,,,,,8,116,-49.5,1,0,0,response3disk,5,77,-6,-2.5,1,0,0,rectangle,-6,-2.5,1,0,0,5,1,0,0.00046,-6,-2.5,1,0,0,0,76,76,98,1,,,,,,,,,,,,,,,,,,,,,
,,,,,,,,,,,,,,,,,,,,,,,,,,,,,,,,,,,,,,,,,,,5dc04255aab19f4906f8d475,5ff3a3d73cc53c9e1d87196f,2021-01-05_00h25.33.527,Colour_Similarity_Experiment_v1,2020.1.2,Win32,60,5ff3a352adaa099f7659f8cc,,,,,,,,,,,,,,,,,,,,PF,,,,,,,,0,0.910725,,,,,,,,,,,,,,,,,,,,,,,,,,,7,-54,147.5,1,0,0,response7disk,7,78,5,8.5,1,0,0,rectangle,5,8.5,1,0,0,5,5,0,0.000455,5,8.5,1,0,0,0,77,77,51,1,,,,,,,,,,,,,,,,,,,,,
,,,,,,,,,,,,,,,,,,,,,,,,,,,,,,,,,,,,,,,,,,,5dc04255aab19f4906f8d475,5ff3a3d73cc53c9e1d87196f,2021-01-05_00h25.33.527,Colour_Similarity_Experiment_v1,2020.1.2,Win32,60,5ff3a352adaa099f7659f8cc,,,,,,,,,,,,,,,,,,,,FF,,,,,,,,2,1.257305,,,,,,,,,,,,,,,,,,,,,,,,,,,8,-110,-54.5,1,0,0,response5disk,9,79,6,-5.5,1,0,0,rectangle,6,-5.5,1,0,0,5,5,0,0.00048,6,-5.5,1,0,0,0,78,78,105,1,,,,,,,,,,,,,,,,,,,,,
,,,,,,,,,,,,,,,,,,,,,,,,,,,,,,,,,,,,,,,,,,,5dc04255aab19f4906f8d475,5ff3a3d73cc53c9e1d87196f,2021-01-05_00h25.33.527,Colour_Similarity_Experiment_v1,2020.1.2,Win32,60,5ff3a352adaa099f7659f8cc,,,,,,,,,,,,,,,,,,,,PF,,,,,,,,6,1.36037,,,,,,,,,,,,,,,,,,,,,,,,,,,9,135,44.5,1,0,0,response1disk,3,80,-1,3.5,1,0,0,rectangle,-1,3.5,1,0,0,5,4,0,0.00044,-1,3.5,1,0,0,0,79,79,119,1,,,,,,,,,,,,,,,,,,,,,
,,,,,,,,,,,,,,,,,,,,,,,,,,,,,,,,,,,,,,,,,,,5dc04255aab19f4906f8d475,5ff3a3d73cc53c9e1d87196f,2021-01-05_00h25.33.527,Colour_Similarity_Experiment_v1,2020.1.2,Win32,60,5ff3a352adaa099f7659f8cc,,,,,,,,,,,,,,,,,,,,PF,,,,,,,,4,2.131725,,,,,,,,,,,,,,,,,,,,,,,,,,,6,71,-133.5,1,0,0,response3disk,8,81,0,-4.5,1,0,0,rectangle,0,-4.5,1,0,0,5,0,0,0.000415,0,-4.5,1,0,0,0,80,80,64,1,,,,,,,,,,,,,,,,,,,,,
,,,,,,,,,,,,,,,,,,,,,,,,,,,,,,,,,,,,,,,,,,,5dc04255aab19f4906f8d475,5ff3a3d73cc53c9e1d87196f,2021-01-05_00h25.33.527,Colour_Similarity_Experiment_v1,2020.1.2,Win32,60,5ff3a352adaa099f7659f8cc,,,,,,,,,,,,,,,,,,,,PF,,,,,,,,3,1.38781,,,,,,,,,,,,,,,,,,,,,,,,,,,3,-52,-134.5,1,0,0,response5disk,2,82,-20,-4.5,1,0,0,rectangle,-112,-51.5,1,0,0,5,2,1,1.740395,10,-4.5,1,0,0,0,81,81,36,1,response5disk_3,rectangle,,,,,,,,,,,,,,,,,,,
,,,,,,,,,,,,,,,,,,,,,,,,,,,,,,,,,,,,,,,,,,,5dc04255aab19f4906f8d475,5ff3a3d73cc53c9e1d87196f,2021-01-05_00h25.33.527,Colour_Similarity_Experiment_v1,2020.1.2,Win32,60,5ff3a352adaa099f7659f8cc,,,,,,,,,,,,,,,,,,,,PF,,,,,,,,5,1.89998,,,,,,,,,,,,,,,,,,,,,,,,,,,8,120,-54.5,1,0,0,response3disk,3,83,12,-2.5,1,0,0,rectangle,12,-2.5,1,0,0,5,5,0,0.000425,12,-2.5,1,0,0,0,82,82,71,1,,,,,,,,,,,,,,,,,,,,,
,,,,,,,,,,,,,,,,,,,,,,,,,,,,,,,,,,,,,,,,,,,5dc04255aab19f4906f8d475,5ff3a3d73cc53c9e1d87196f,2021-01-05_00h25.33.527,Colour_Similarity_Experiment_v1,2020.1.2,Win32,60,5ff3a352adaa099f7659f8cc,,,,,,,,,,,,,,,,,,,,FF,,,,,,,,4,1.27612,,,,,,,,,,,,,,,,,,,,,,,,,,,5,58,-133.5,1,0,0,response3disk,7,84,22,9.5,1,0,0,rectangle,22,9.5,1,0,0,5,2,0,0.00045,22,9.5,1,0,0,0,83,83,7,1,,,,,,,,,,,,,,,,,,,,,
,,,,,,,,,,,,,,,,,,,,,,,,,,,,,,,,,,,,,,,,,,,5dc04255aab19f4906f8d475,5ff3a3d73cc53c9e1d87196f,2021-01-05_00h25.33.527,Colour_Similarity_Experiment_v1,2020.1.2,Win32,60,5ff3a352adaa099f7659f8cc,,,,,,,,,,,,,,,,,,,,FF,,,,,,,,5,3.241115,,,,,,,,,,,,,,,,,,,,,,,,,,,2,117,-47.5,1,0,0,response3disk,4,85,6,0.5,1,0,0,rectangle,6,0.5,1,0,0,5,5,0,0.000445,6,0.5,1,0,0,0,84,84,145,1,,,,,,,,,,,,,,,,,,,,,
,,,,,,,,,,,,,,,,,,,,,,,,,,,,,,,,,,,,,,,,,,,5dc04255aab19f4906f8d475,5ff3a3d73cc53c9e1d87196f,2021-01-05_00h25.33.527,Colour_Similarity_Experiment_v1,2020.1.2,Win32,60,5ff3a352adaa099f7659f8cc,,,,,,,,,,,,,,,,,,,,PF,,,,,,,,3,1.11587,,,,,,,,,,,,,,,,,,,,,,,,,,,7,-53,-132.5,1,0,0,response5disk,5,86,-4,-12.5,1,0,0,rectangle,-4,-12.5,1,0,0,5,7,0,0.000455,-4,-12.5,1,0,0,0,85,85,92,1,,,,,,,,,,,,,,,,,,,,,
,,,,,,,,,,,,,,,,,,,,,,,,,,,,,,,,,,,,,,,,,,,5dc04255aab19f4906f8d475,5ff3a3d73cc53c9e1d87196f,2021-01-05_00h25.33.527,Colour_Similarity_Experiment_v1,2020.1.2,Win32,60,5ff3a352adaa099f7659f8cc,,,,,,,,,,,,,,,,,,,,FF,,,,,,,,2,1.060815,,,,,,,,,,,,,,,,,,,,,,,,,,,4,-115,-50.5,1,0,0,response5disk,3,87,-3,-4.5,1,0,0,rectangle,-3,-4.5,1,0,0,5,1,0,0.000565,-3,-4.5,1,0,0,0,86,86,77,1,,,,,,,,,,,,,,,,,,,,,
,,,,,,,,,,,,,,,,,,,,,,,,,,,,,,,,,,,,,,,,,,,5dc04255aab19f4906f8d475,5ff3a3d73cc53c9e1d87196f,2021-01-05_00h25.33.527,Colour_Similarity_Experiment_v1,2020.1.2,Win32,60,5ff3a352adaa099f7659f8cc,,,,,,,,,,,,,,,,,,,,PF,,,,,,,,6,1.644065,,,,,,,,,,,,,,,,,,,,,,,,,,,3,135,51.5,1,0,0,response1disk,9,88,1,-9.5,1,0,0,rectangle,1,-9.5,1,0,0,5,3,0,0.000425,1,-9.5,1,0,0,0,87,87,79,1,,,,,,,,,,,,,,,,,,,,,
,,,,,,,,,,,,,,,,,,,,,,,,,,,,,,,,,,,,,,,,,,,5dc04255aab19f4906f8d475,5ff3a3d73cc53c9e1d87196f,2021-01-05_00h25.33.527,Colour_Similarity_Experiment_v1,2020.1.2,Win32,60,5ff3a352adaa099f7659f8cc,,,,,,,,,,,,,,,,,,,,PF,,,,,,,,1,1.48726,,,,,,,,,,,,,,,,,,,,,,,,,,,4,-118,51.5,1,0,0,response7disk,3,89,-3,-0.5,1,0,0,rectangle,-3,-0.5,1,0,0,5,4,0,0.00046,-3,-0.5,1,0,0,0,88,88,89,1,,,,,,,,,,,,,,,,,,,,,
,,,,,,,,,,,,,,,,,,,,,,,,,,,,,,,,,,,,,,,,,,,5dc04255aab19f4906f8d475,5ff3a3d73cc53c9e1d87196f,2021-01-05_00h25.33.527,Colour_Similarity_Experiment_v1,2020.1.2,Win32,60,5ff3a352adaa099f7659f8cc,,,,,,,,,,,,,,,,,,,,PF,,,,,,,,1,1.02566,,,,,,,,,,,,,,,,,,,,,,,,,,,7,-123,48.5,1,0,0,response7disk,6,90,-10,4.5,1,0,0,rectangle,-10,4.5,1,0,0,5,2,0,0.00041,-10,4.5,1,0,0,0,89,89,29,1,,,,,,,,,,,,,,,,,,,,,
,,,,,,,,,,,,,,,,,,,,,,,,,,,,,,,,,,,,,,,,,,,5dc04255aab19f4906f8d475,5ff3a3d73cc53c9e1d87196f,2021-01-05_00h25.33.527,Colour_Similarity_Experiment_v1,2020.1.2,Win32,60,5ff3a352adaa099f7659f8cc,,,,,,,,,,,,,,,,,,,,FF,,,,,,,,7,1.128925,,,,,,,,,,,,,,,,,,,,,,,,,,,8,56,136.5,1,0,0,response1disk,2,91,11,4.5,1,0,0,rectangle,11,4.5,1,0,0,5,2,0,0.000375,11,4.5,1,0,0,0,90,90,22,1,,,,,,,,,,,,,,,,,,,,,
,,,,,,,,,,,,,,,,,,,,,,,,,,,,,,,,,,,,,,,,,,,5dc04255aab19f4906f8d475,5ff3a3d73cc53c9e1d87196f,2021-01-05_00h25.33.527,Colour_Similarity_Experiment_v1,2020.1.2,Win32,60,5ff3a352adaa099f7659f8cc,,,,,,,,,,,,,,,,,,,,FF,,,,,,,,7,0.8156,,,,,,,,,,,,,,,,,,,,,,,,,,,7,53,140.5,1,0,0,response1disk,1,92,9,4.5,1,0,0,rectangle,9,4.5,1,0,0,5,5,0,0.0004,9,4.5,1,0,0,0,91,91,132,1,,,,,,,,,,,,,,,,,,,,,
,,,,,,,,,,,,,,,,,,,,,,,,,,,,,,,,,,,,,,,,,,,5dc04255aab19f4906f8d475,5ff3a3d73cc53c9e1d87196f,2021-01-05_00h25.33.527,Colour_Similarity_Experiment_v1,2020.1.2,Win32,60,5ff3a352adaa099f7659f8cc,,,,,,,,,,,,,,,,,,,,FF,,,,,,,,6,2.69685,,,,,,,,,,,,,,,,,,,,,,,,,,,9,140,46.5,1,0,0,response1disk,3,93,13,0.5,1,0,0,rectangle,13,0.5,1,0,0,5,6,0,0.000405,13,0.5,1,0,0,0,92,92,141,1,,,,,,,,,,,,,,,,,,,,,
,,,,,,,,,,,,,,,,,,,,,,,,,,,,,,,,,,,,,,,,,,,5dc04255aab19f4906f8d475,5ff3a3d73cc53c9e1d87196f,2021-01-05_00h25.33.527,Colour_Similarity_Experiment_v1,2020.1.2,Win32,60,5ff3a352adaa099f7659f8cc,,,,,,,,,,,,,,,,,,,,FF,,,,,,,,4,2.19568,,,,,,,,,,,,,,,,,,,,,,,,,,,8,60,-133.5,1,0,0,response3disk,6,94,-3,-11.5,1,0,0,rectangle,-3,-11.5,1,0,0,5,7,0,0.00044,-3,-11.5,1,0,0,0,93,93,37,1,,,,,,,,,,,,,,,,,,,,,
,,,,,,,,,,,,,,,,,,,,,,,,,,,,,,,,,,,,,,,,,,,5dc04255aab19f4906f8d475,5ff3a3d73cc53c9e1d87196f,2021-01-05_00h25.33.527,Colour_Similarity_Experiment_v1,2020.1.2,Win32,60,5ff3a352adaa099f7659f8cc,,,,,,,,,,,,,,,,,,,,PF,,,,,,,,0,0.610355,,,,,,,,,,,,,,,,,,,,,,,,,,,4,-51,149.5,1,0,0,response7disk,4,95,1,-5.5,1,0,0,rectangle,1,-5.5,1,0,0,5,2,0,0.00062,1,-5.5,1,0,0,0,94,94,70,1,,,,,,,,,,,,,,,,,,,,,
,,,,,,,,,,,,,,,,,,,,,,,,,,,,,,,,,,,,,,,,,,,5dc04255aab19f4906f8d475,5ff3a3d73cc53c9e1d87196f,2021-01-05_00h25.33.527,Colour_Similarity_Experiment_v1,2020.1.2,Win32,60,5ff3a352adaa099f7659f8cc,,,,,,,,,,,,,,,,,,,,PF,,,,,,,,6,2.11439,,,,,,,,,,,,,,,,,,,,,,,,,,,4,135,44.5,1,0,0,response1disk,2,96,-5,0.5,1,0,0,rectangle,-5,0.5,1,0,0,5,3,0,0.000455,-5,0.5,1,0,0,0,95,95,108,1,,,,,,,,,,,,,,,,,,,,,
,,,,,,,,,,,,,,,,,,,,,,,,,,,,,,,,,,,,,,,,,,,5dc04255aab19f4906f8d475,5ff3a3d73cc53c9e1d87196f,2021-01-05_00h25.33.527,Colour_Similarity_Experiment_v1,2020.1.2,Win32,60,5ff3a352adaa099f7659f8cc,,,,,,,,,,,,,,,,,,,,PF,,,,,,,,5,2.42158,,,,,,,,,,,,,,,,,,,,,,,,,,,9,119,-54.5,1,0,0,response3disk,6,97,-9,5.5,1,0,0,rectangle,-9,5.5,1,0,0,5,5,0,0.000435,-9,5.5,1,0,0,0,96,96,148,1,,,,,,,,,,,,,,,,,,,,,
,,,,,,,,,,,,,,,,,,,,,,,,,,,,,,,,,,,,,,,,,,,5dc04255aab19f4906f8d475,5ff3a3d73cc53c9e1d87196f,2021-01-05_00h25.33.527,Colour_Similarity_Experiment_v1,2020.1.2,Win32,60,5ff3a352adaa099f7659f8cc,,,,,,,,,,,,,,,,,,,,FF,,,,,,,,7,1.19942,,,,,,,,,,,,,,,,,,,,,,,,,,,1,53,136.5,1,0,0,response1disk,5,98,5,-1.5,1,0,0,rectangle,5,-1.5,1,0,0,5,0,0,0.00037,5,-1.5,1,0,0,0,97,97,82,1,,,,,,,,,,,,,,,,,,,,,
,,,,,,,,,,,,,,,,,,,,,,,,,,,,,,,,,,,,,,,,,,,5dc04255aab19f4906f8d475,5ff3a3d73cc53c9e1d87196f,2021-01-05_00h25.33.527,Colour_Similarity_Experiment_v1,2020.1.2,Win32,60,5ff3a352adaa099f7659f8cc,,,,,,,,,,,,,,,,,,,,FF,,,,,,,,4,1.56957,,,,,,,,,,,,,,,,,,,,,,,,,,,1,54,-134.5,1,0,0,response3disk,8,99,-19,1.5,1,0,0,rectangle,-19,1.5,1,0,0,5,1,0,0.000415,-19,1.5,1,0,0,0,98,98,27,1,,,,,,,,,,,,,,,,,,,,,
,,,,,,,,,,,,,,,,,,,,,,,,,,,,,,,,,,,,,,,,,,,5dc04255aab19f4906f8d475,5ff3a3d73cc53c9e1d87196f,2021-01-05_00h25.33.527,Colour_Similarity_Experiment_v1,2020.1.2,Win32,60,5ff3a352adaa099f7659f8cc,,,,,,,,,,,,,,,,,,,,PF,,,,,,,,0,0.86274,,,,,,,,,,,,,,,,,,,,,,,,,,,8,-53,133.5,1,0,0,response7disk,8,100,-14,-3.5,1,0,0,rectangle,-14,-3.5,1,0,0,5,7,0,0.000415,-14,-3.5,1,0,0,0,99,99,153,1,,,,,,,,,,,,,,,,,,,,,
,,,,,,,,,,,,,,,,,,,,,,,,,,,,,,,,,,,,,,,,,,,5dc04255aab19f4906f8d475,5ff3a3d73cc53c9e1d87196f,2021-01-05_00h25.33.527,Colour_Similarity_Experiment_v1,2020.1.2,Win32,60,5ff3a352adaa099f7659f8cc,,,,,,,,,,,,,,,,,,,,PF,,,,,,,,5,4.84162,,,,,,,,,,,,,,,,,,,,,,,,,,,3,115,-48.5,1,0,0,response3disk,6,101,-2,-1.5,1,0,0,rectangle,-2,-1.5,1,0,0,5,2,0,0.000505,-2,-1.5,1,0,0,0,100,100,47,1,,,,,,,,,,,,,,,,,,,,,
,,,,,,,,,,,,,,,,,,,,,,,,,,,,,,,,,,,,,,,,,,,5dc04255aab19f4906f8d475,5ff3a3d73cc53c9e1d87196f,2021-01-05_00h25.33.527,Colour_Similarity_Experiment_v1,2020.1.2,Win32,60,5ff3a352adaa099f7659f8cc,,,,,,,,,,,,,,,,,,,,FF,,,,,,,,5,1.36526,,,,,,,,,,,,,,,,,,,,,,,,,,,9,114,-61.5,1,0,0,response3disk,5,102,-4,6.5,1,0,0,rectangle,-4,6.5,1,0,0,5,1,0,0.000565,-4,6.5,1,0,0,0,101,101,128,1,,,,,,,,,,,,,,,,,,,,,
,,,,,,,,,,,,,,,,,,,,,,,,,,,,,,,,,,,,,,,,,,,5dc04255aab19f4906f8d475,5ff3a3d73cc53c9e1d87196f,2021-01-05_00h25.33.527,Colour_Similarity_Experiment_v1,2020.1.2,Win32,60,5ff3a352adaa099f7659f8cc,,,,,,,,,,,,,,,,,,,,FF,,,,,,,,5,1.301725,,,,,,,,,,,,,,,,,,,,,,,,,,,7,117,-55.5,1,0,0,response3disk,5,103,-1,2.5,1,0,0,rectangle,-1,2.5,1,0,0,5,2,0,0.001635,-1,2.5,1,0,0,0,102,102,156,1,,,,,,,,,,,,,,,,,,,,,
,,,,,,,,,,,,,,,,,,,,,,,,,,,,,,,,,,,,,,,,,,,5dc04255aab19f4906f8d475,5ff3a3d73cc53c9e1d87196f,2021-01-05_00h25.33.527,Colour_Similarity_Experiment_v1,2020.1.2,Win32,60,5ff3a352adaa099f7659f8cc,,,,,,,,,,,,,,,,,,,,PF,,,,,,,,7,1.28387,,,,,,,,,,,,,,,,,,,,,,,,,,,1,52,134.5,1,0,0,response1disk,3,104,0,1.5,1,0,0,rectangle,0,1.5,1,0,0,5,0,0,0.000435,0,1.5,1,0,0,0,103,103,1,1,,,,,,,,,,,,,,,,,,,,,
,,,,,,,,,,,,,,,,,,,,,,,,,,,,,,,,,,,,,,,,,,,5dc04255aab19f4906f8d475,5ff3a3d73cc53c9e1d87196f,2021-01-05_00h25.33.527,Colour_Similarity_Experiment_v1,2020.1.2,Win32,60,5ff3a352adaa099f7659f8cc,,,,,,,,,,,,,,,,,,,,PF,,,,,,,,2,1.23184,,,,,,,,,,,,,,,,,,,,,,,,,,,5,-117,-44.5,1,0,0,response5disk,4,105,16,6.5,1,0,0,rectangle,16,6.5,1,0,0,5,0,0,0.000375,16,6.5,1,0,0,0,104,104,54,1,,,,,,,,,,,,,,,,,,,,,
,,,,,,,,,,,,,,,,,,,,,,,,,,,,,,,,,,,,,,,,,,,5dc04255aab19f4906f8d475,5ff3a3d73cc53c9e1d87196f,2021-01-05_00h25.33.527,Colour_Similarity_Experiment_v1,2020.1.2,Win32,60,5ff3a352adaa099f7659f8cc,,,,,,,,,,,,,,,,,,,,FF,,,,,,,,5,2.746995,,,,,,,,,,,,,,,,,,,,,,,,,,,7,114,-55.5,1,0,0,response3disk,4,106,10,-1.5,1,0,0,rectangle,10,-1.5,1,0,0,5,2,0,0.000425,10,-1.5,1,0,0,0,105,105,158,1,,,,,,,,,,,,,,,,,,,,,
,,,,,,,,,,,,,,,,,,,,,,,,,,,,,,,,,,,,,,,,,,,5dc04255aab19f4906f8d475,5ff3a3d73cc53c9e1d87196f,2021-01-05_00h25.33.527,Colour_Similarity_Experiment_v1,2020.1.2,Win32,60,5ff3a352adaa099f7659f8cc,,,,,,,,,,,,,,,,,,,,PF,,,,,,,,3,1.03692,,,,,,,,,,,,,,,,,,,,,,,,,,,1,-55,-140.5,1,0,0,response5disk,2,107,-7,-1.5,1,0,0,rectangle,-7,-1.5,1,0,0,5,4,0,0.000425,-7,-1.5,1,0,0,0,106,106,24,1,,,,,,,,,,,,,,,,,,,,,
,,,,,,,,,,,,,,,,,,,,,,,,,,,,,,,,,,,,,,,,,,,5dc04255aab19f4906f8d475,5ff3a3d73cc53c9e1d87196f,2021-01-05_00h25.33.527,Colour_Similarity_Experiment_v1,2020.1.2,Win32,60,5ff3a352adaa099f7659f8cc,,,,,,,,,,,,,,,,,,,,PF,,,,,,,,0,0.852925,,,,,,,,,,,,,,,,,,,,,,,,,,,1,-42,136.5,1,0,0,response7disk,1,108,3,-1.5,1,0,0,rectangle,-43,-127.5,1,0,0,3,3,1,1.62463,14,3.5,1,0,0,0,107,107,76,1,response5disk_3,rectangle,,,,,,,,,,,,,,,,,,,
,,,,,,,,,,,,,,,,,,,,,,,,,,,,,,,,,,,,,,,,,,,5dc04255aab19f4906f8d475,5ff3a3d73cc53c9e1d87196f,2021-01-05_00h25.33.527,Colour_Similarity_Experiment_v1,2020.1.2,Win32,60,5ff3a352adaa099f7659f8cc,,,,,,,,,,,,,,,,,,,,FF,,,,,,,,4,2.208145,,,,,,,,,,,,,,,,,,,,,,,,,,,9,50,-139.5,1,0,0,response3disk,7,109,3,-8.5,1,0,0,rectangle,3,-8.5,1,0,0,3,2,0,0.000445,3,-8.5,1,0,0,0,108,108,100,1,,,,,,,,,,,,,,,,,,,,,
,,,,,,,,,,,,,,,,,,,,,,,,,,,,,,,,,,,,,,,,,,,5dc04255aab19f4906f8d475,5ff3a3d73cc53c9e1d87196f,2021-01-05_00h25.33.527,Colour_Similarity_Experiment_v1,2020.1.2,Win32,60,5ff3a352adaa099f7659f8cc,,,,,,,,,,,,,,,,,,,,PF,,,,,,,,4,1.481155,,,,,,,,,,,,,,,,,,,,,,,,,,,1,55,-149.5,1,0,0,response3disk,8,110,-9,-0.5,1,0,0,rectangle,-9,-0.5,1,0,0,3,3,0,0.001205,-9,-0.5,1,0,0,0,109,109,65,1,,,,,,,,,,,,,,,,,,,,,
,,,,,,,,,,,,,,,,,,,,,,,,,,,,,,,,,,,,,,,,,,,5dc04255aab19f4906f8d475,5ff3a3d73cc53c9e1d87196f,2021-01-05_00h25.33.527,Colour_Similarity_Experiment_v1,2020.1.2,Win32,60,5ff3a352adaa099f7659f8cc,,,,,,,,,,,,,,,,,,,,PF,,,,,,,,3,1.230215,,,,,,,,,,,,,,,,,,,,,,,,,,,2,-55,-128.5,1,0,0,response5disk,3,111,-10,-16.5,1,0,0,rectangle,-10,-16.5,1,0,0,3,7,0,0.000415,-10,-16.5,1,0,0,0,110,110,69,1,,,,,,,,,,,,,,,,,,,,,
,,,,,,,,,,,,,,,,,,,,,,,,,,,,,,,,,,,,,,,,,,,5dc04255aab19f4906f8d475,5ff3a3d73cc53c9e1d87196f,2021-01-05_00h25.33.527,Colour_Similarity_Experiment_v1,2020.1.2,Win32,60,5ff3a352adaa099f7659f8cc,,,,,,,,,,,,,,,,,,,,PF,,,,,,,,0,0.757105,,,,,,,,,,,,,,,,,,,,,,,,,,,9,-65,148.5,1,0,0,response7disk,9,112,-2,8.5,1,0,0,rectangle,-2,8.5,1,0,0,3,2,0,0.000425,-2,8.5,1,0,0,0,111,111,106,1,,,,,,,,,,,,,,,,,,,,,
,,,,,,,,,,,,,,,,,,,,,,,,,,,,,,,,,,,,,,,,,,,5dc04255aab19f4906f8d475,5ff3a3d73cc53c9e1d87196f,2021-01-05_00h25.33.527,Colour_Similarity_Experiment_v1,2020.1.2,Win32,60,5ff3a352adaa099f7659f8cc,,,,,,,,,,,,,,,,,,,,PF,,,,,,,,2,2.079195,,,,,,,,,,,,,,,,,,,,,,,,,,,6,-115,-47.5,1,0,0,response5disk,7,113,1,-1.5,1,0,0,rectangle,1,-1.5,1,0,0,3,4,0,0.000435,1,-1.5,1,0,0,0,112,112,50,1,,,,,,,,,,,,,,,,,,,,,
,,,,,,,,,,,,,,,,,,,,,,,,,,,,,,,,,,,,,,,,,,,5dc04255aab19f4906f8d475,5ff3a3d73cc53c9e1d87196f,2021-01-05_00h25.33.527,Colour_Similarity_Experiment_v1,2020.1.2,Win32,60,5ff3a352adaa099f7659f8cc,,,,,,,,,,,,,,,,,,,,FF,,,,,,,,5,1.86253,,,,,,,,,,,,,,,,,,,,,,,,,,,4,113,-50.5,1,0,0,response3disk,7,114,-7,-5.5,1,0,0,rectangle,-7,-5.5,1,0,0,3,6,0,0.0012,-7,-5.5,1,0,0,0,113,113,87,1,,,,,,,,,,,,,,,,,,,,,
,,,,,,,,,,,,,,,,,,,,,,,,,,,,,,,,,,,,,,,,,,,5dc04255aab19f4906f8d475,5ff3a3d73cc53c9e1d87196f,2021-01-05_00h25.33.527,Colour_Similarity_Experiment_v1,2020.1.2,Win32,60,5ff3a352adaa099f7659f8cc,,,,,,,,,,,,,,,,,,,,FF,,,,,,,,3,1.080825,,,,,,,,,,,,,,,,,,,,,,,,,,,9,-54,-139.5,1,0,0,response5disk,1,115,-16,-8.5,1,0,0,rectangle,-16,-8.5,1,0,0,3,0,0,0.000415,-16,-8.5,1,0,0,0,114,114,111,1,,,,,,,,,,,,,,,,,,,,,
,,,,,,,,,,,,,,,,,,,,,,,,,,,,,,,,,,,,,,,,,,,5dc04255aab19f4906f8d475,5ff3a3d73cc53c9e1d87196f,2021-01-05_00h25.33.527,Colour_Similarity_Experiment_v1,2020.1.2,Win32,60,5ff3a352adaa099f7659f8cc,,,,,,,,,,,,,,,,,,,,FF,,,,,,,,0,0.67076,,,,,,,,,,,,,,,,,,,,,,,,,,,6,-58,138.5,1,0,0,response7disk,6,116,-3,11.5,1,0,0,rectangle,-3,11.5,1,0,0,3,5,0,0.000525,-3,11.5,1,0,0,0,115,115,91,1,,,,,,,,,,,,,,,,,,,,,
,,,,,,,,,,,,,,,,,,,,,,,,,,,,,,,,,,,,,,,,,,,5dc04255aab19f4906f8d475,5ff3a3d73cc53c9e1d87196f,2021-01-05_00h25.33.527,Colour_Similarity_Experiment_v1,2020.1.2,Win32,60,5ff3a352adaa099f7659f8cc,,,,,,,,,,,,,,,,,,,,PF,,,,,,,,4,3.228015,,,,,,,,,,,,,,,,,,,,,,,,,,,6,40,-132.5,1,0,0,response3disk,3,117,-3,4.5,1,0,0,rectangle,-3,4.5,1,0,0,3,1,0,0.00051,-3,4.5,1,0,0,0,116,116,26,1,,,,,,,,,,,,,,,,,,,,,
,,,,,,,,,,,,,,,,,,,,,,,,,,,,,,,,,,,,,,,,,,,5dc04255aab19f4906f8d475,5ff3a3d73cc53c9e1d87196f,2021-01-05_00h25.33.527,Colour_Similarity_Experiment_v1,2020.1.2,Win32,60,5ff3a352adaa099f7659f8cc,,,,,,,,,,,,,,,,,,,,PF,,,,,,,,4,0.9424,,,,,,,,,,,,,,,,,,,,,,,,,,,4,61,-137.5,1,0,0,response3disk,6,118,-7,5.5,1,0,0,rectangle,-7,5.5,1,0,0,3,5,0,0.00044,-7,5.5,1,0,0,0,117,117,120,1,,,,,,,,,,,,,,,,,,,,,
,,,,,,,,,,,,,,,,,,,,,,,,,,,,,,,,,,,,,,,,,,,5dc04255aab19f4906f8d475,5ff3a3d73cc53c9e1d87196f,2021-01-05_00h25.33.527,Colour_Similarity_Experiment_v1,2020.1.2,Win32,60,5ff3a352adaa099f7659f8cc,,,,,,,,,,,,,,,,,,,,PF,,,,,,,,0,0.79191,,,,,,,,,,,,,,,,,,,,,,,,,,,5,-42,150.5,1,0,0,response7disk,5,119,3,10.5,1,0,0,rectangle,3,10.5,1,0,0,3,2,0,0.000415,3,10.5,1,0,0,0,118,118,94,1,,,,,,,,,,,,,,,,,,,,,
,,,,,,,,,,,,,,,,,,,,,,,,,,,,,,,,,,,,,,,,,,,5dc04255aab19f4906f8d475,5ff3a3d73cc53c9e1d87196f,2021-01-05_00h25.33.527,Colour_Similarity_Experiment_v1,2020.1.2,Win32,60,5ff3a352adaa099f7659f8cc,,,,,,,,,,,,,,,,,,,,FF,,,,,,,,3,0.99836,,,,,,,,,,,,,,,,,,,,,,,,,,,2,-47,-123.5,1,0,0,response5disk,3,120,4,6.5,1,0,0,rectangle,-109,48.5,1,0,0,1,1,1,1.286365,16,-5.5,1,0,0,0,119,119,104,1,response7disk_3,rectangle,,,,,,,,,,,,,,,,,,,
,,,,,,,,,,,,,,,,,,,,,,,,,,,,,,,,,,,,,,,,,,,5dc04255aab19f4906f8d475,5ff3a3d73cc53c9e1d87196f,2021-01-05_00h25.33.527,Colour_Similarity_Experiment_v1,2020.1.2,Win32,60,5ff3a352adaa099f7659f8cc,,,,,,,,,,,,,,,,,,,,FF,,,,,,,,5,3.095,,,,,,,,,,,,,,,,,,,,,,,,,,,5,110,-52.5,1,0,0,response3disk,9,121,0,-10.5,1,0,0,rectangle,0,-10.5,1,0,0,1,6,0,0.0004,0,-10.5,1,0,0,0,120,120,61,1,,,,,,,,,,,,,,,,,,,,,
,,,,,,,,,,,,,,,,,,,,,,,,,,,,,,,,,,,,,,,,,,,5dc04255aab19f4906f8d475,5ff3a3d73cc53c9e1d87196f,2021-01-05_00h25.33.527,Colour_Similarity_Experiment_v1,2020.1.2,Win32,60,5ff3a352adaa099f7659f8cc,,,,,,,,,,,,,,,,,,,,PF,,,,,,,,2,1.56197,,,,,,,,,,,,,,,,,,,,,,,,,,,5,-108,-46.5,1,0,0,response5disk,6,122,1,0.5,1,0,0,rectangle,1,0.5,1,0,0,1,4,0,0.000415,1,0.5,1,0,0,0,121,121,103,1,,,,,,,,,,,,,,,,,,,,,
,,,,,,,,,,,,,,,,,,,,,,,,,,,,,,,,,,,,,,,,,,,5dc04255aab19f4906f8d475,5ff3a3d73cc53c9e1d87196f,2021-01-05_00h25.33.527,Colour_Similarity_Experiment_v1,2020.1.2,Win32,60,5ff3a352adaa099f7659f8cc,,,,,,,,,,,,,,,,,,,,FF,,,,,,,,7,0.84217,,,,,,,,,,,,,,,,,,,,,,,,,,,4,58,138.5,1,0,0,response1disk,1,123,6,7.5,1,0,0,rectangle,6,7.5,1,0,0,1,3,0,0.00047,6,7.5,1,0,0,0,122,122,102,1,,,,,,,,,,,,,,,,,,,,,
,,,,,,,,,,,,,,,,,,,,,,,,,,,,,,,,,,,,,,,,,,,5dc04255aab19f4906f8d475,5ff3a3d73cc53c9e1d87196f,2021-01-05_00h25.33.527,Colour_Similarity_Experiment_v1,2020.1.2,Win32,60,5ff3a352adaa099f7659f8cc,,,,,,,,,,,,,,,,,,,,PF,,,,,,,,4,1.193825,,,,,,,,,,,,,,,,,,,,,,,,,,,6,45,-116.5,1,0,0,response3disk,4,124,12,-9.5,1,0,0,rectangle,12,-9.5,1,0,0,1,4,0,0.0004,12,-9.5,1,0,0,0,123,123,33,1,,,,,,,,,,,,,,,,,,,,,
,,,,,,,,,,,,,,,,,,,,,,,,,,,,,,,,,,,,,,,,,,,5dc04255aab19f4906f8d475,5ff3a3d73cc53c9e1d87196f,2021-01-05_00h25.33.527,Colour_Similarity_Experiment_v1,2020.1.2,Win32,60,5ff3a352adaa099f7659f8cc,,,,,,,,,,,,,,,,,,,,FF,,,,,,,,3,1.212505,,,,,,,,,,,,,,,,,,,,,,,,,,,4,-52,-119.5,1,0,0,response5disk,2,125,-6,6.5,1,0,0,rectangle,-6,6.5,1,0,0,1,6,0,0.000425,-6,6.5,1,0,0,0,124,124,13,1,,,,,,,,,,,,,,,,,,,,,
,,,,,,,,,,,,,,,,,,,,,,,,,,,,,,,,,,,,,,,,,,,5dc04255aab19f4906f8d475,5ff3a3d73cc53c9e1d87196f,2021-01-05_00h25.33.527,Colour_Similarity_Experiment_v1,2020.1.2,Win32,60,5ff3a352adaa099f7659f8cc,,,,,,,,,,,,,,,,,,,,FF,,,,,,,,7,1.011495,,,,,,,,,,,,,,,,,,,,,,,,,,,7,61,125.5,1,0,0,response1disk,2,126,3,16.5,1,0,0,rectangle,3,16.5,1,0,0,1,2,0,0.000415,3,16.5,1,0,0,0,125,125,138,1,,,,,,,,,,,,,,,,,,,,,
,,,,,,,,,,,,,,,,,,,,,,,,,,,,,,,,,,,,,,,,,,,5dc04255aab19f4906f8d475,5ff3a3d73cc53c9e1d87196f,2021-01-05_00h25.33.527,Colour_Similarity_Experiment_v1,2020.1.2,Win32,60,5ff3a352adaa099f7659f8cc,,,,,,,,,,,,,,,,,,,,FF,,,,,,,,4,4.32868,,,,,,,,,,,,,,,,,,,,,,,,,,,3,58,-132.5,1,0,0,response3disk,7,127,2,7.5,1,0,0,rectangle,2,7.5,1,0,0,1,4,0,0.000445,2,7.5,1,0,0,0,126,126,118,1,,,,,,,,,,,,,,,,,,,,,
,,,,,,,,,,,,,,,,,,,,,,,,,,,,,,,,,,,,,,,,,,,5dc04255aab19f4906f8d475,5ff3a3d73cc53c9e1d87196f,2021-01-05_00h25.33.527,Colour_Similarity_Experiment_v1,2020.1.2,Win32,60,5ff3a352adaa099f7659f8cc,,,,,,,,,,,,,,,,,,,,PF,,,,,,,,4,1.15286,,,,,,,,,,,,,,,,,,,,,,,,,,,8,82,-135.5,1,0,0,response3disk,6,128,0,4.5,1,0,0,rectangle,-45,135.5,1,0,0,0,0,1,1.50561,4,-7.5,1,0,0,0,127,127,161,1,response7disk_3,rectangle,,,,,,,,,,,,,,,,,,,
,,,,,,,,,,,,,,,,,,,,,,,,,,,,,,,,,,,,,,,,,,,5dc04255aab19f4906f8d475,5ff3a3d73cc53c9e1d87196f,2021-01-05_00h25.33.527,Colour_Similarity_Experiment_v1,2020.1.2,Win32,60,5ff3a352adaa099f7659f8cc,,,,,,,,,,,,,,,,,,,,FF,,,,,,,,7,1.007135,,,,,,,,,,,,,,,,,,,,,,,,,,,4,70,122.5,1,0,0,response1disk,8,129,5,17.5,1,0,0,rectangle,5,17.5,1,0,0,0,5,0,0.000535,5,17.5,1,0,0,0,128,128,35,1,,,,,,,,,,,,,,,,,,,,,
,,,,,,,,,,,,,,,,,,,,,,,,,,,,,,,,,,,,,,,,,,,5dc04255aab19f4906f8d475,5ff3a3d73cc53c9e1d87196f,2021-01-05_00h25.33.527,Colour_Similarity_Experiment_v1,2020.1.2,Win32,60,5ff3a352adaa099f7659f8cc,,,,,,,,,,,,,,,,,,,,PF,,,,,,,,0,0.835685,,,,,,,,,,,,,,,,,,,,,,,,,,,3,-54,142.5,1,0,0,response7disk,4,130,1,5.5,1,0,0,rectangle,1,5.5,1,0,0,0,1,0,0.000415,1,5.5,1,0,0,0,129,129,30,1,,,,,,,,,,,,,,,,,,,,,
,,,,,,,,,,,,,,,,,,,,,,,,,,,,,,,,,,,,,,,,,,,5dc04255aab19f4906f8d475,5ff3a3d73cc53c9e1d87196f,2021-01-05_00h25.33.527,Colour_Similarity_Experiment_v1,2020.1.2,Win32,60,5ff3a352adaa099f7659f8cc,,,,,,,,,,,,,,,,,,,,FF,,,,,,,,5,2.04359,,,,,,,,,,,,,,,,,,,,,,,,,,,9,117,-54.5,1,0,0,response3disk,4,131,10,-17.5,1,0,0,rectangle,10,-17.5,1,0,0,0,2,0,0.00054,10,-17.5,1,0,0,0,130,130,60,1,,,,,,,,,,,,,,,,,,,,,
,,,,,,,,,,,,,,,,,,,,,,,,,,,,,,,,,,,,,,,,,,,5dc04255aab19f4906f8d475,5ff3a3d73cc53c9e1d87196f,2021-01-05_00h25.33.527,Colour_Similarity_Experiment_v1,2020.1.2,Win32,60,5ff3a352adaa099f7659f8cc,,,,,,,,,,,,,,,,,,,,FF,,,,,,,,5,1.223555,,,,,,,,,,,,,,,,,,,,,,,,,,,8,108,-54.5,1,0,0,response3disk,3,132,-11,-7.5,1,0,0,rectangle,-11,-7.5,1,0,0,0,2,0,0.00045,-11,-7.5,1,0,0,0,131,131,154,1,,,,,,,,,,,,,,,,,,,,,
,,,,,,,,,,,,,,,,,,,,,,,,,,,,,,,,,,,,,,,,,,,5dc04255aab19f4906f8d475,5ff3a3d73cc53c9e1d87196f,2021-01-05_00h25.33.527,Colour_Similarity_Experiment_v1,2020.1.2,Win32,60,5ff3a352adaa099f7659f8cc,,,,,,,,,,,,,,,,,,,,PF,,,,,,,,4,1.283105,,,,,,,,,,,,,,,,,,,,,,,,,,,7,72,-113.5,1,0,0,response3disk,4,133,15,-7.5,1,0,0,rectangle,15,-7.5,1,0,0,0,3,0,0.000405,15,-7.5,1,0,0,0,132,132,43,1,,,,,,,,,,,,,,,,,,,,,
,,,,,,,,,,,,,,,,,,,,,,,,,,,,,,,,,,,,,,,,,,,5dc04255aab19f4906f8d475,5ff3a3d73cc53c9e1d87196f,2021-01-05_00h25.33.527,Colour_Similarity_Experiment_v1,2020.1.2,Win32,60,5ff3a352adaa099f7659f8cc,,,,,,,,,,,,,,,,,,,,FF,,,,,,,,4,4.850195,,,,,,,,,,,,,,,,,,,,,,,,,,,2,52,-123.5,1,0,0,response3disk,5,134,30,3.5,1,0,0,rectangle,30,3.5,1,0,0,0,3,0,0.000435,30,3.5,1,0,0,0,133,133,80,1,,,,,,,,,,,,,,,,,,,,,
,,,,,,,,,,,,,,,,,,,,,,,,,,,,,,,,,,,,,,,,,,,5dc04255aab19f4906f8d475,5ff3a3d73cc53c9e1d87196f,2021-01-05_00h25.33.527,Colour_Similarity_Experiment_v1,2020.1.2,Win32,60,5ff3a352adaa099f7659f8cc,,,,,,,,,,,,,,,,,,,,PF,,,,,,,,1,1.073325,,,,,,,,,,,,,,,,,,,,,,,,,,,6,-114,45.5,1,0,0,response7disk,5,135,21,-16.5,1,0,0,rectangle,21,-16.5,1,0,0,0,0,0,0.000445,21,-16.5,1,0,0,0,134,134,59,1,,,,,,,,,,,,,,,,,,,,,
,,,,,,,,,,,,,,,,,,,,,,,,,,,,,,,,,,,,,,,,,,,5dc04255aab19f4906f8d475,5ff3a3d73cc53c9e1d87196f,2021-01-05_00h25.33.527,Colour_Similarity_Experiment_v1,2020.1.2,Win32,60,5ff3a352adaa099f7659f8cc,,,,,,,,,,,,,,,,,,,,PF,,,,,,,,7,0.879875,,,,,,,,,,,,,,,,,,,,,,,,,,,3,68,124.5,1,0,0,response1disk,1,136,-4,-0.5,1,0,0,rectangle,-4,-0.5,1,0,0,0,3,0,0.000385,-4,-0.5,1,0,0,0,135,135,96,1,,,,,,,,,,,,,,,,,,,,,
,,,,,,,,,,,,,,,,,,,,,,,,,,,,,,,,,,,,,,,,,,,5dc04255aab19f4906f8d475,5ff3a3d73cc53c9e1d87196f,2021-01-05_00h25.33.527,Colour_Similarity_Experiment_v1,2020.1.2,Win32,60,5ff3a352adaa099f7659f8cc,,,,,,,,,,,,,,,,,,,,FF,,,,,,,,4,1.35406,,,,,,,,,,,,,,,,,,,,,,,,,,,9,69,-127.5,1,0,0,response3disk,6,137,4,-5.5,1,0,0,rectangle,4,-5.5,1,0,0,0,2,0,0.000415,4,-5.5,1,0,0,0,136,136,117,1,,,,,,,,,,,,,,,,,,,,,
,,,,,,,,,,,,,,,,,,,,,,,,,,,,,,,,,,,,,,,,,,,5dc04255aab19f4906f8d475,5ff3a3d73cc53c9e1d87196f,2021-01-05_00h25.33.527,Colour_Similarity_Experiment_v1,2020.1.2,Win32,60,5ff3a352adaa099f7659f8cc,,,,,,,,,,,,,,,,,,,,FF,,,,,,,,3,1.195465,,,,,,,,,,,,,,,,,,,,,,,,,,,8,-50,-132.5,1,0,0,response5disk,5,138,8,1.5,1,0,0,rectangle,8,1.5,1,0,0,0,1,0,0.00043,8,1.5,1,0,0,0,137,137,152,1,,,,,,,,,,,,,,,,,,,,,
,,,,,,,,,,,,,,,,,,,,,,,,,,,,,,,,,,,,,,,,,,,5dc04255aab19f4906f8d475,5ff3a3d73cc53c9e1d87196f,2021-01-05_00h25.33.527,Colour_Similarity_Experiment_v1,2020.1.2,Win32,60,5ff3a352adaa099f7659f8cc,,,,,,,,,,,,,,,,,,,,PF,,,,,,,,3,1.328395,,,,,,,,,,,,,,,,,,,,,,,,,,,5,-46,-105.5,1,0,0,response5disk,7,139,14,-3.5,1,0,0,rectangle,14,-3.5,1,0,0,0,5,0,0.00041,14,-3.5,1,0,0,0,138,138,146,1,,,,,,,,,,,,,,,,,,,,,
,,,,,,,,,,,,,,,,,,,,,,,,,,,,,,,,,,,,,,,,,,,5dc04255aab19f4906f8d475,5ff3a3d73cc53c9e1d87196f,2021-01-05_00h25.33.527,Colour_Similarity_Experiment_v1,2020.1.2,Win32,60,5ff3a352adaa099f7659f8cc,,,,,,,,,,,,,,,,,,,,FF,,,,,,,,4,1.055005,,,,,,,,,,,,,,,,,,,,,,,,,,,3,63,-121.5,1,0,0,response3disk,9,140,-4,16.5,1,0,0,rectangle,-4,16.5,1,0,0,0,7,0,0.00061,-4,16.5,1,0,0,0,139,139,143,1,,,,,,,,,,,,,,,,,,,,,
,,,,,,,,,,,,,,,,,,,,,,,,,,,,,,,,,,,,,,,,,,,5dc04255aab19f4906f8d475,5ff3a3d73cc53c9e1d87196f,2021-01-05_00h25.33.527,Colour_Similarity_Experiment_v1,2020.1.2,Win32,60,5ff3a352adaa099f7659f8cc,,,,,,,,,,,,,,,,,,,,FF,,,,,,,,4,1.468875,,,,,,,,,,,,,,,,,,,,,,,,,,,7,84,-121.5,1,0,0,response3disk,3,141,-15,-4.5,1,0,0,rectangle,-15,-4.5,1,0,0,0,0,0,0.000645,-15,-4.5,1,0,0,0,140,140,73,1,,,,,,,,,,,,,,,,,,,,,
,,,,,,,,,,,,,,,,,,,,,,,,,,,,,,,,,,,,,,,,,,,5dc04255aab19f4906f8d475,5ff3a3d73cc53c9e1d87196f,2021-01-05_00h25.33.527,Colour_Similarity_Experiment_v1,2020.1.2,Win32,60,5ff3a352adaa099f7659f8cc,,,,,,,,,,,,,,,,,,,,PF,,,,,,,,4,2.01489,,,,,,,,,,,,,,,,,,,,,,,,,,,9,62,-121.5,1,0,0,response3disk,5,142,-10,4.5,1,0,0,rectangle,-10,4.5,1,0,0,0,1,0,0.00046,-10,4.5,1,0,0,0,141,141,134,1,,,,,,,,,,,,,,,,,,,,,
,,,,,,,,,,,,,,,,,,,,,,,,,,,,,,,,,,,,,,,,,,,5dc04255aab19f4906f8d475,5ff3a3d73cc53c9e1d87196f,2021-01-05_00h25.33.527,Colour_Similarity_Experiment_v1,2020.1.2,Win32,60,5ff3a352adaa099f7659f8cc,,,,,,,,,,,,,,,,,,,,FF,,,,,,,,5,1.450555,,,,,,,,,,,,,,,,,,,,,,,,,,,6,116,-48.5,1,0,0,response3disk,9,143,26,3.5,1,0,0,rectangle,-118,45.5,1,0,0,1,1,1,1.29894,2,6.5,1,0,0,0,142,142,160,1,response7disk_3,rectangle,,,,,,,,,,,,,,,,,,,
,,,,,,,,,,,,,,,,,,,,,,,,,,,,,,,,,,,,,,,,,,,5dc04255aab19f4906f8d475,5ff3a3d73cc53c9e1d87196f,2021-01-05_00h25.33.527,Colour_Similarity_Experiment_v1,2020.1.2,Win32,60,5ff3a352adaa099f7659f8cc,,,,,,,,,,,,,,,,,,,,FF,,,,,,,,2,2.067665,,,,,,,,,,,,,,,,,,,,,,,,,,,1,-113,-51.5,1,0,0,response5disk,2,144,-4,5.5,1,0,0,rectangle,-4,5.5,1,0,0,1,0,0,0.000605,-4,5.5,1,0,0,0,143,143,2,1,,,,,,,,,,,,,,,,,,,,,
,,,,,,,,,,,,,,,,,,,,,,,,,,,,,,,,,,,,,,,,,,,5dc04255aab19f4906f8d475,5ff3a3d73cc53c9e1d87196f,2021-01-05_00h25.33.527,Colour_Similarity_Experiment_v1,2020.1.2,Win32,60,5ff3a352adaa099f7659f8cc,,,,,,,,,,,,,,,,,,,,FF,,,,,,,,7,0.955455,,,,,,,,,,,,,,,,,,,,,,,,,,,1,63,134.5,1,0,0,response1disk,6,145,5,13.5,1,0,0,rectangle,5,13.5,1,0,0,1,6,0,0.000405,5,13.5,1,0,0,0,144,144,58,1,,,,,,,,,,,,,,,,,,,,,
,,,,,,,,,,,,,,,,,,,,,,,,,,,,,,,,,,,,,,,,,,,5dc04255aab19f4906f8d475,5ff3a3d73cc53c9e1d87196f,2021-01-05_00h25.33.527,Colour_Similarity_Experiment_v1,2020.1.2,Win32,60,5ff3a352adaa099f7659f8cc,,,,,,,,,,,,,,,,,,,,PF,,,,,,,,2,1.01979,,,,,,,,,,,,,,,,,,,,,,,,,,,2,-111,-36.5,1,0,0,response5disk,1,146,-7,16.5,1,0,0,rectangle,-7,16.5,1,0,0,1,5,0,0.000435,-7,16.5,1,0,0,0,145,145,9,1,,,,,,,,,,,,,,,,,,,,,
,,,,,,,,,,,,,,,,,,,,,,,,,,,,,,,,,,,,,,,,,,,5dc04255aab19f4906f8d475,5ff3a3d73cc53c9e1d87196f,2021-01-05_00h25.33.527,Colour_Similarity_Experiment_v1,2020.1.2,Win32,60,5ff3a352adaa099f7659f8cc,,,,,,,,,,,,,,,,,,,,FF,,,,,,,,2,1.352115,,,,,,,,,,,,,,,,,,,,,,,,,,,6,-92,-43.5,1,0,0,response5disk,8,147,8,14.5,1,0,0,rectangle,8,14.5,1,0,0,1,0,0,0.000705,8,14.5,1,0,0,0,146,146,133,1,,,,,,,,,,,,,,,,,,,,,
,,,,,,,,,,,,,,,,,,,,,,,,,,,,,,,,,,,,,,,,,,,5dc04255aab19f4906f8d475,5ff3a3d73cc53c9e1d87196f,2021-01-05_00h25.33.527,Colour_Similarity_Experiment_v1,2020.1.2,Win32,60,5ff3a352adaa099f7659f8cc,,,,,,,,,,,,,,,,,,,,PF,,,,,,,,7,1.07322,,,,,,,,,,,,,,,,,,,,,,,,,,,2,65,120.5,1,0,0,response1disk,7,148,-3,1.5,1,0,0,rectangle,-3,1.5,1,0,0,1,3,0,0.000425,-3,1.5,1,0,0,0,147,147,107,1,,,,,,,,,,,,,,,,,,,,,
,,,,,,,,,,,,,,,,,,,,,,,,,,,,,,,,,,,,,,,,,,,5dc04255aab19f4906f8d475,5ff3a3d73cc53c9e1d87196f,2021-01-05_00h25.33.527,Colour_Similarity_Experiment_v1,2020.1.2,Win32,60,5ff3a352adaa099f7659f8cc,,,,,,,,,,,,,,,,,,,,FF,,,,,,,,6,1.166555,,,,,,,,,,,,,,,,,,,,,,,,,,,1,122,47.5,1,0,0,response1disk,3,149,-4,-2.5,1,0,0,rectangle,-4,-2.5,1,0,0,1,0,0,0.000435,-4,-2.5,1,0,0,0,148,148,99,1,,,,,,,,,,,,,,,,,,,,,
,,,,,,,,,,,,,,,,,,,,,,,,,,,,,,,,,,,,,,,,,,,5dc04255aab19f4906f8d475,5ff3a3d73cc53c9e1d87196f,2021-01-05_00h25.33.527,Colour_Similarity_Experiment_v1,2020.1.2,Win32,60,5ff3a352adaa099f7659f8cc,,,,,,,,,,,,,,,,,,,,PF,,,,,,,,3,1.231845,,,,,,,,,,,,,,,,,,,,,,,,,,,2,-51,-111.5,1,0,0,response5disk,9,150,-4,9.5,1,0,0,rectangle,-4,9.5,1,0,0,1,3,0,0.00039,-4,9.5,1,0,0,0,149,149,39,1,,,,,,,,,,,,,,,,,,,,,
,,,,,,,,,,,,,,,,,,,,,,,,,,,,,,,,,,,,,,,,,,,5dc04255aab19f4906f8d475,5ff3a3d73cc53c9e1d87196f,2021-01-05_00h25.33.527,Colour_Similarity_Experiment_v1,2020.1.2,Win32,60,5ff3a352adaa099f7659f8cc,,,,,,,,,,,,,,,,,,,,FF,,,,,,,,6,1.579435,,,,,,,,,,,,,,,,,,,,,,,,,,,8,121,55.5,1,0,0,response1disk,1,151,-1,4.5,1,0,0,rectangle,-1,4.5,1,0,0,1,2,0,0.00044,-1,4.5,1,0,0,0,150,150,20,1,,,,,,,,,,,,,,,,,,,,,
,,,,,,,,,,,,,,,,,,,,,,,,,,,,,,,,,,,,,,,,,,,5dc04255aab19f4906f8d475,5ff3a3d73cc53c9e1d87196f,2021-01-05_00h25.33.527,Colour_Similarity_Experiment_v1,2020.1.2,Win32,60,5ff3a352adaa099f7659f8cc,,,,,,,,,,,,,,,,,,,,FF,,,,,,,,5,2.317335,,,,,,,,,,,,,,,,,,,,,,,,,,,7,110,-46.5,1,0,0,response3disk,9,152,1,17.5,1,0,0,rectangle,1,17.5,1,0,0,1,2,0,0.00048,1,17.5,1,0,0,0,151,151,155,1,,,,,,,,,,,,,,,,,,,,,
,,,,,,,,,,,,,,,,,,,,,,,,,,,,,,,,,,,,,,,,,,,5dc04255aab19f4906f8d475,5ff3a3d73cc53c9e1d87196f,2021-01-05_00h25.33.527,Colour_Similarity_Experiment_v1,2020.1.2,Win32,60,5ff3a352adaa099f7659f8cc,,,,,,,,,,,,,,,,,,,,FF,,,,,,,,2,0.89744,,,,,,,,,,,,,,,,,,,,,,,,,,,6,-111,-60.5,1,0,0,response5disk,5,153,8,-2.5,1,0,0,rectangle,8,-2.5,1,0,0,1,6,0,0.0004,8,-2.5,1,0,0,0,152,152,126,1,,,,,,,,,,,,,,,,,,,,,
,,,,,,,,,,,,,,,,,,,,,,,,,,,,,,,,,,,,,,,,,,,5dc04255aab19f4906f8d475,5ff3a3d73cc53c9e1d87196f,2021-01-05_00h25.33.527,Colour_Similarity_Experiment_v1,2020.1.2,Win32,60,5ff3a352adaa099f7659f8cc,,,,,,,,,,,,,,,,,,,,PF,,,,,,,,7,1.910335,,,,,,,,,,,,,,,,,,,,,,,,,,,1,58,118.5,1,0,0,response1disk,6,154,14,4.5,1,0,0,rectangle,14,4.5,1,0,0,1,5,0,0.000535,14,4.5,1,0,0,0,153,153,144,1,,,,,,,,,,,,,,,,,,,,,
,,,,,,,,,,,,,,,,,,,,,,,,,,,,,,,,,,,,,,,,,,,5dc04255aab19f4906f8d475,5ff3a3d73cc53c9e1d87196f,2021-01-05_00h25.33.527,Colour_Similarity_Experiment_v1,2020.1.2,Win32,60,5ff3a352adaa099f7659f8cc,,,,,,,,,,,,,,,,,,,,PF,,,,,,,,7,1.678645,,,,,,,,,,,,,,,,,,,,,,,,,,,6,62,128.5,1,0,0,response1disk,9,155,-4,-5.5,1,0,0,rectangle,-4,-5.5,1,0,0,1,7,0,0.00042,-4,-5.5,1,0,0,0,154,154,45,1,,,,,,,,,,,,,,,,,,,,,
,,,,,,,,,,,,,,,,,,,,,,,,,,,,,,,,,,,,,,,,,,,5dc04255aab19f4906f8d475,5ff3a3d73cc53c9e1d87196f,2021-01-05_00h25.33.527,Colour_Similarity_Experiment_v1,2020.1.2,Win32,60,5ff3a352adaa099f7659f8cc,,,,,,,,,,,,,,,,,,,,FF,,,,,,,,7,0.927735,,,,,,,,,,,,,,,,,,,,,,,,,,,1,65,124.5,1,0,0,response1disk,4,156,0,9.5,1,0,0,rectangle,0,9.5,1,0,0,1,4,0,0.00073,0,9.5,1,0,0,0,155,155,135,1,,,,,,,,,,,,,,,,,,,,,
,,,,,,,,,,,,,,,,,,,,,,,,,,,,,,,,,,,,,,,,,,,5dc04255aab19f4906f8d475,5ff3a3d73cc53c9e1d87196f,2021-01-05_00h25.33.527,Colour_Similarity_Experiment_v1,2020.1.2,Win32,60,5ff3a352adaa099f7659f8cc,,,,,,,,,,,,,,,,,,,,PF,,,,,,,,0,0.68457,,,,,,,,,,,,,,,,,,,,,,,,,,,2,-37,136.5,1,0,0,response7disk,2,157,-6,1.5,1,0,0,rectangle,-6,1.5,1,0,0,1,4,0,0.000415,-6,1.5,1,0,0,0,156,156,14,1,,,,,,,,,,,,,,,,,,,,,
,,,,,,,,,,,,,,,,,,,,,,,,,,,,,,,,,,,,,,,,,,,5dc04255aab19f4906f8d475,5ff3a3d73cc53c9e1d87196f,2021-01-05_00h25.33.527,Colour_Similarity_Experiment_v1,2020.1.2,Win32,60,5ff3a352adaa099f7659f8cc,,,,,,,,,,,,,,,,,,,,FF,,,,,,,,2,1.70791,,,,,,,,,,,,,,,,,,,,,,,,,,,6,-111,-56.5,1,0,0,response5disk,7,158,2,14.5,1,0,0,rectangle,2,14.5,1,0,0,1,6,0,0.000395,2,14.5,1,0,0,0,157,157,18,1,,,,,,,,,,,,,,,,,,,,,
,,,,,,,,,,,,,,,,,,,,,,,,,,,,,,,,,,,,,,,,,,,5dc04255aab19f4906f8d475,5ff3a3d73cc53c9e1d87196f,2021-01-05_00h25.33.527,Colour_Similarity_Experiment_v1,2020.1.2,Win32,60,5ff3a352adaa099f7659f8cc,,,,,,,,,,,,,,,,,,,,FF,,,,,,,,3,1.432105,,,,,,,,,,,,,,,,,,,,,,,,,,,3,-51,-111.5,1,0,0,response5disk,2,159,-15,6.5,1,0,0,rectangle,-15,6.5,1,0,0,1,7,0,0.001205,-15,6.5,1,0,0,0,158,158,93,1,,,,,,,,,,,,,,,,,,,,,
,,,,,,,,,,,,,,,,,,,,,,,,,,,,,,,,,,,,,,,,,,,5dc04255aab19f4906f8d475,5ff3a3d73cc53c9e1d87196f,2021-01-05_00h25.33.527,Colour_Similarity_Experiment_v1,2020.1.2,Win32,60,5ff3a352adaa099f7659f8cc,,,,,,,,,,,,,,,,,,,,FF,,,,,,,,6,1.916555,,,,,,,,,,,,,,,,,,,,,,,,,,,6,110,58.5,1,0,0,response1disk,1,160,11,-3.5,1,0,0,rectangle,11,-3.5,1,0,0,1,6,0,0.00046,11,-3.5,1,0,0,0,159,159,5,1,,,,,,,,,,,,,,,,,,,,,
,,,,,,,,,,,,,,,,,,,,,,,,,,,,,,,,,,,,,,,,,,,5dc04255aab19f4906f8d475,5ff3a3d73cc53c9e1d87196f,2021-01-05_00h25.33.527,Colour_Similarity_Experiment_v1,2020.1.2,Win32,60,5ff3a352adaa099f7659f8cc,,,,,,,,,,,,,,,,,,,,PF,,,,,,,,7,2.147095,,,,,,,,,,,,,,,,,,,,,,,,,,,6,61,128.5,1,0,0,response1disk,2,161,22,12.5,1,0,0,rectangle,22,12.5,1,0,0,1,0,0,0.00045,22,12.5,1,0,0,0,160,160,130,1,,,,,,,,,,,,,,,,,,,,,
,,,,,,,,,,,,,,,,,,,,,,,,,,,,,,,,,,,,,,,,,,,5dc04255aab19f4906f8d475,5ff3a3d73cc53c9e1d87196f,2021-01-05_00h25.33.527,Colour_Similarity_Experiment_v1,2020.1.2,Win32,60,5ff3a352adaa099f7659f8cc,,,,,,,,,,,,,,,,,,,,PF,,,,,,,,0,0.81891,,,,,,,,,,,,,,,,,,,,,,,,,,,3,-53,131.5,1,0,0,response7disk,3,162,-16,12.5,1,0,0,rectangle,-16,12.5,1,0,0,1,1,0,0.000405,-16,12.5,1,0,0,0,161,161,4,1,,,,,,,,,,,,,,,,,,,,,
,,,,,,,,,,,,,,,,,,,,,,,,,,,,,,,,,,,,,,,,,,,5dc04255aab19f4906f8d475,5ff3a3d73cc53c9e1d87196f,2021-01-05_00h25.33.527,Colour_Similarity_Experiment_v1,2020.1.2,Win32,60,5ff3a352adaa099f7659f8cc,,,,,,,,,,,,,,,,,,,,,,,,,,,,,,,,,,,,,,,,,,,,,,,,,,,,,,,,,,,,,,,,,,,,,,,,,,,,,,,,,,,,,,,,,,,,0,0,0,0,1,,,,,,,,,,,,,,
,,,,,,,,,,,,,,,,,,,,,,,,,,,,,,,,,,,,,,,,,,,5dc04255aab19f4906f8d475,5ff3a3d73cc53c9e1d87196f,2021-01-05_00h25.33.527,Colour_Similarity_Experiment_v1,2020.1.2,Win32,60,5ff3a352adaa099f7659f8cc,,,,,,,,,,,,,,,,,,,,FF,,,,,,,,7,1.979505,,,,,,,,,,,,,,,,,,,,,,,,,,,8,49,132.5,1,0,0,response1disk,3,163,3,-13.5,1,0,0,rectangle,3,-13.5,1,0,0,1,0,0,0.000445,3,-13.5,1,0,0,0,0,0,154,1,,,,,,,,,,,,,,,,,,,,,
,,,,,,,,,,,,,,,,,,,,,,,,,,,,,,,,,,,,,,,,,,,5dc04255aab19f4906f8d475,5ff3a3d73cc53c9e1d87196f,2021-01-05_00h25.33.527,Colour_Similarity_Experiment_v1,2020.1.2,Win32,60,5ff3a352adaa099f7659f8cc,,,,,,,,,,,,,,,,,,,,PF,,,,,,,,7,2.396595,,,,,,,,,,,,,,,,,,,,,,,,,,,2,53,113.5,1,0,0,response1disk,6,164,10,-0.5,1,0,0,rectangle,10,-0.5,1,0,0,1,1,0,0.000385,10,-0.5,1,0,0,0,1,1,113,1,,,,,,,,,,,,,,,,,,,,,
,,,,,,,,,,,,,,,,,,,,,,,,,,,,,,,,,,,,,,,,,,,5dc04255aab19f4906f8d475,5ff3a3d73cc53c9e1d87196f,2021-01-05_00h25.33.527,Colour_Similarity_Experiment_v1,2020.1.2,Win32,60,5ff3a352adaa099f7659f8cc,,,,,,,,,,,,,,,,,,,,PF,,,,,,,,3,1.712225,,,,,,,,,,,,,,,,,,,,,,,,,,,9,-58,-110.5,1,0,0,response5disk,1,165,-17,-1.5,1,0,0,rectangle,-17,-1.5,1,0,0,1,2,0,0.00084,-17,-1.5,1,0,0,0,2,2,74,1,,,,,,,,,,,,,,,,,,,,,
,,,,,,,,,,,,,,,,,,,,,,,,,,,,,,,,,,,,,,,,,,,5dc04255aab19f4906f8d475,5ff3a3d73cc53c9e1d87196f,2021-01-05_00h25.33.527,Colour_Similarity_Experiment_v1,2020.1.2,Win32,60,5ff3a352adaa099f7659f8cc,,,,,,,,,,,,,,,,,,,,FF,,,,,,,,1,0.952785,,,,,,,,,,,,,,,,,,,,,,,,,,,3,-114,49.5,1,0,0,response7disk,4,166,-13,-0.5,1,0,0,rectangle,-13,-0.5,1,0,0,1,0,0,0.00041,-13,-0.5,1,0,0,0,3,3,110,1,,,,,,,,,,,,,,,,,,,,,
,,,,,,,,,,,,,,,,,,,,,,,,,,,,,,,,,,,,,,,,,,,5dc04255aab19f4906f8d475,5ff3a3d73cc53c9e1d87196f,2021-01-05_00h25.33.527,Colour_Similarity_Experiment_v1,2020.1.2,Win32,60,5ff3a352adaa099f7659f8cc,,,,,,,,,,,,,,,,,,,,PF,,,,,,,,0,0.746995,,,,,,,,,,,,,,,,,,,,,,,,,,,3,-54,123.5,1,0,0,response7disk,3,167,4,12.5,1,0,0,rectangle,4,12.5,1,0,0,1,6,0,0.000415,4,12.5,1,0,0,0,4,4,4,1,,,,,,,,,,,,,,,,,,,,,
,,,,,,,,,,,,,,,,,,,,,,,,,,,,,,,,,,,,,,,,,,,5dc04255aab19f4906f8d475,5ff3a3d73cc53c9e1d87196f,2021-01-05_00h25.33.527,Colour_Similarity_Experiment_v1,2020.1.2,Win32,60,5ff3a352adaa099f7659f8cc,,,,,,,,,,,,,,,,,,,,PF,,,,,,,,7,1.209855,,,,,,,,,,,,,,,,,,,,,,,,,,,9,64,143.5,1,0,0,response1disk,3,168,10,-1.5,1,0,0,rectangle,10,-1.5,1,0,0,1,3,0,0.000435,10,-1.5,1,0,0,0,5,5,119,1,,,,,,,,,,,,,,,,,,,,,
,,,,,,,,,,,,,,,,,,,,,,,,,,,,,,,,,,,,,,,,,,,5dc04255aab19f4906f8d475,5ff3a3d73cc53c9e1d87196f,2021-01-05_00h25.33.527,Colour_Similarity_Experiment_v1,2020.1.2,Win32,60,5ff3a352adaa099f7659f8cc,,,,,,,,,,,,,,,,,,,,FF,,,,,,,,3,1.18688,,,,,,,,,,,,,,,,,,,,,,,,,,,8,-49,-121.5,1,0,0,response5disk,6,169,1,13.5,1,0,0,rectangle,1,13.5,1,0,0,1,3,0,0.0005,1,13.5,1,0,0,0,6,6,37,1,,,,,,,,,,,,,,,,,,,,,
,,,,,,,,,,,,,,,,,,,,,,,,,,,,,,,,,,,,,,,,,,,5dc04255aab19f4906f8d475,5ff3a3d73cc53c9e1d87196f,2021-01-05_00h25.33.527,Colour_Similarity_Experiment_v1,2020.1.2,Win32,60,5ff3a352adaa099f7659f8cc,,,,,,,,,,,,,,,,,,,,PF,,,,,,,,3,1.796395,,,,,,,,,,,,,,,,,,,,,,,,,,,9,-47,-113.5,1,0,0,response5disk,2,170,-11,-7.5,1,0,0,rectangle,-11,-7.5,1,0,0,1,6,0,0.001125,-11,-7.5,1,0,0,0,7,7,157,1,,,,,,,,,,,,,,,,,,,,,
,,,,,,,,,,,,,,,,,,,,,,,,,,,,,,,,,,,,,,,,,,,5dc04255aab19f4906f8d475,5ff3a3d73cc53c9e1d87196f,2021-01-05_00h25.33.527,Colour_Similarity_Experiment_v1,2020.1.2,Win32,60,5ff3a352adaa099f7659f8cc,,,,,,,,,,,,,,,,,,,,PF,,,,,,,,7,0.787775,,,,,,,,,,,,,,,,,,,,,,,,,,,1,51,131.5,1,0,0,response1disk,4,171,14,-3.5,1,0,0,rectangle,14,-3.5,1,0,0,1,6,0,0.000445,14,-3.5,1,0,0,0,8,8,139,1,,,,,,,,,,,,,,,,,,,,,
,,,,,,,,,,,,,,,,,,,,,,,,,,,,,,,,,,,,,,,,,,,5dc04255aab19f4906f8d475,5ff3a3d73cc53c9e1d87196f,2021-01-05_00h25.33.527,Colour_Similarity_Experiment_v1,2020.1.2,Win32,60,5ff3a352adaa099f7659f8cc,,,,,,,,,,,,,,,,,,,,PF,,,,,,,,2,1.807315,,,,,,,,,,,,,,,,,,,,,,,,,,,7,-97,-59.5,1,0,0,response5disk,5,172,15,2.5,1,0,0,rectangle,15,2.5,1,0,0,1,5,0,0.000445,15,2.5,1,0,0,0,9,9,92,1,,,,,,,,,,,,,,,,,,,,,
,,,,,,,,,,,,,,,,,,,,,,,,,,,,,,,,,,,,,,,,,,,5dc04255aab19f4906f8d475,5ff3a3d73cc53c9e1d87196f,2021-01-05_00h25.33.527,Colour_Similarity_Experiment_v1,2020.1.2,Win32,60,5ff3a352adaa099f7659f8cc,,,,,,,,,,,,,,,,,,,,FF,,,,,,,,2,1.95654,,,,,,,,,,,,,,,,,,,,,,,,,,,3,-114,-56.5,1,0,0,response5disk,7,173,26,17.5,1,0,0,rectangle,26,17.5,1,0,0,1,5,0,0.0004,26,17.5,1,0,0,0,10,10,118,1,,,,,,,,,,,,,,,,,,,,,
,,,,,,,,,,,,,,,,,,,,,,,,,,,,,,,,,,,,,,,,,,,5dc04255aab19f4906f8d475,5ff3a3d73cc53c9e1d87196f,2021-01-05_00h25.33.527,Colour_Similarity_Experiment_v1,2020.1.2,Win32,60,5ff3a352adaa099f7659f8cc,,,,,,,,,,,,,,,,,,,,PF,,,,,,,,4,1.67284,,,,,,,,,,,,,,,,,,,,,,,,,,,7,54,-122.5,1,0,0,response3disk,3,174,-4,6.5,1,0,0,rectangle,-4,6.5,1,0,0,1,1,0,0.00043,-4,6.5,1,0,0,0,11,11,81,1,,,,,,,,,,,,,,,,,,,,,
,,,,,,,,,,,,,,,,,,,,,,,,,,,,,,,,,,,,,,,,,,,5dc04255aab19f4906f8d475,5ff3a3d73cc53c9e1d87196f,2021-01-05_00h25.33.527,Colour_Similarity_Experiment_v1,2020.1.2,Win32,60,5ff3a352adaa099f7659f8cc,,,,,,,,,,,,,,,,,,,,PF,,,,,,,,4,1.267375,,,,,,,,,,,,,,,,,,,,,,,,,,,3,61,-119.5,1,0,0,response3disk,7,175,9,-4.5,1,0,0,rectangle,9,-4.5,1,0,0,1,5,0,0.000455,9,-4.5,1,0,0,0,12,12,41,1,,,,,,,,,,,,,,,,,,,,,
,,,,,,,,,,,,,,,,,,,,,,,,,,,,,,,,,,,,,,,,,,,5dc04255aab19f4906f8d475,5ff3a3d73cc53c9e1d87196f,2021-01-05_00h25.33.527,Colour_Similarity_Experiment_v1,2020.1.2,Win32,60,5ff3a352adaa099f7659f8cc,,,,,,,,,,,,,,,,,,,,PF,,,,,,,,3,1.230225,,,,,,,,,,,,,,,,,,,,,,,,,,,8,-47,-119.5,1,0,0,response5disk,6,176,6,-0.5,1,0,0,rectangle,57,132.5,1,0,0,7,7,1,2.05306,-14,-11.5,1,0,0,0,13,13,161,1,response1disk_3,rectangle,,,,,,,,,,,,,,,,,,,
,,,,,,,,,,,,,,,,,,,,,,,,,,,,,,,,,,,,,,,,,,,5dc04255aab19f4906f8d475,5ff3a3d73cc53c9e1d87196f,2021-01-05_00h25.33.527,Colour_Similarity_Experiment_v1,2020.1.2,Win32,60,5ff3a352adaa099f7659f8cc,,,,,,,,,,,,,,,,,,,,PF,,,,,,,,3,0.98889,,,,,,,,,,,,,,,,,,,,,,,,,,,3,-48,-135.5,1,0,0,response5disk,2,177,19,7.5,1,0,0,rectangle,133,53.5,1,0,0,6,6,1,1.33349,1,1.5,1,0,0,0,14,14,36,1,response1disk_3,rectangle,,,,,,,,,,,,,,,,,,,
,,,,,,,,,,,,,,,,,,,,,,,,,,,,,,,,,,,,,,,,,,,5dc04255aab19f4906f8d475,5ff3a3d73cc53c9e1d87196f,2021-01-05_00h25.33.527,Colour_Similarity_Experiment_v1,2020.1.2,Win32,60,5ff3a352adaa099f7659f8cc,,,,,,,,,,,,,,,,,,,,FF,,,,,,,,4,1.09274,,,,,,,,,,,,,,,,,,,,,,,,,,,2,45,-128.5,1,0,0,response3disk,4,178,-5,-11.5,1,0,0,rectangle,-5,-11.5,1,0,0,6,1,0,0.00039,-5,-11.5,1,0,0,0,15,15,145,1,,,,,,,,,,,,,,,,,,,,,
,,,,,,,,,,,,,,,,,,,,,,,,,,,,,,,,,,,,,,,,,,,5dc04255aab19f4906f8d475,5ff3a3d73cc53c9e1d87196f,2021-01-05_00h25.33.527,Colour_Similarity_Experiment_v1,2020.1.2,Win32,60,5ff3a352adaa099f7659f8cc,,,,,,,,,,,,,,,,,,,,PF,,,,,,,,0,0.788605,,,,,,,,,,,,,,,,,,,,,,,,,,,8,-62,106.5,1,0,0,response7disk,8,179,9,-15.5,1,0,0,rectangle,9,-15.5,1,0,0,6,7,0,0.000395,9,-15.5,1,0,0,0,16,16,153,1,,,,,,,,,,,,,,,,,,,,,
,,,,,,,,,,,,,,,,,,,,,,,,,,,,,,,,,,,,,,,,,,,5dc04255aab19f4906f8d475,5ff3a3d73cc53c9e1d87196f,2021-01-05_00h25.33.527,Colour_Similarity_Experiment_v1,2020.1.2,Win32,60,5ff3a352adaa099f7659f8cc,,,,,,,,,,,,,,,,,,,,FF,,,,,,,,3,1.286235,,,,,,,,,,,,,,,,,,,,,,,,,,,9,-58,-104.5,1,0,0,response5disk,2,180,9,3.5,1,0,0,rectangle,57,131.5,1,0,0,7,7,1,2.068405,-7,1.5,1,0,0,0,17,17,11,1,response1disk_3,rectangle,,,,,,,,,,,,,,,,,,,
,,,,,,,,,,,,,,,,,,,,,,,,,,,,,,,,,,,,,,,,,,,5dc04255aab19f4906f8d475,5ff3a3d73cc53c9e1d87196f,2021-01-05_00h25.33.527,Colour_Similarity_Experiment_v1,2020.1.2,Win32,60,5ff3a352adaa099f7659f8cc,,,,,,,,,,,,,,,,,,,,FF,,,,,,,,4,1.416615,,,,,,,,,,,,,,,,,,,,,,,,,,,9,47,-131.5,1,0,0,response3disk,7,181,0,3.5,1,0,0,rectangle,0,3.5,1,0,0,7,1,0,0.00052,0,3.5,1,0,0,0,18,18,100,1,,,,,,,,,,,,,,,,,,,,,
,,,,,,,,,,,,,,,,,,,,,,,,,,,,,,,,,,,,,,,,,,,5dc04255aab19f4906f8d475,5ff3a3d73cc53c9e1d87196f,2021-01-05_00h25.33.527,Colour_Similarity_Experiment_v1,2020.1.2,Win32,60,5ff3a352adaa099f7659f8cc,,,,,,,,,,,,,,,,,,,,FF,,,,,,,,2,0.973435,,,,,,,,,,,,,,,,,,,,,,,,,,,6,-108,-64.5,1,0,0,response5disk,7,182,-2,13.5,1,0,0,rectangle,-2,13.5,1,0,0,7,2,0,0.000415,-2,13.5,1,0,0,0,19,19,18,1,,,,,,,,,,,,,,,,,,,,,
,,,,,,,,,,,,,,,,,,,,,,,,,,,,,,,,,,,,,,,,,,,5dc04255aab19f4906f8d475,5ff3a3d73cc53c9e1d87196f,2021-01-05_00h25.33.527,Colour_Similarity_Experiment_v1,2020.1.2,Win32,60,5ff3a352adaa099f7659f8cc,,,,,,,,,,,,,,,,,,,,FF,,,,,,,,2,0.95103,,,,,,,,,,,,,,,,,,,,,,,,,,,1,-92,-55.5,1,0,0,response5disk,9,183,-1,2.5,1,0,0,rectangle,-1,2.5,1,0,0,7,4,0,0.000415,-1,2.5,1,0,0,0,20,20,123,1,,,,,,,,,,,,,,,,,,,,,
,,,,,,,,,,,,,,,,,,,,,,,,,,,,,,,,,,,,,,,,,,,5dc04255aab19f4906f8d475,5ff3a3d73cc53c9e1d87196f,2021-01-05_00h25.33.527,Colour_Similarity_Experiment_v1,2020.1.2,Win32,60,5ff3a352adaa099f7659f8cc,,,,,,,,,,,,,,,,,,,,FF,,,,,,,,5,1.25402,,,,,,,,,,,,,,,,,,,,,,,,,,,2,113,-52.5,1,0,0,response3disk,5,184,-4,0.5,1,0,0,rectangle,-4,0.5,1,0,0,7,7,0,0.001335,-4,0.5,1,0,0,0,21,21,80,1,,,,,,,,,,,,,,,,,,,,,
,,,,,,,,,,,,,,,,,,,,,,,,,,,,,,,,,,,,,,,,,,,5dc04255aab19f4906f8d475,5ff3a3d73cc53c9e1d87196f,2021-01-05_00h25.33.527,Colour_Similarity_Experiment_v1,2020.1.2,Win32,60,5ff3a352adaa099f7659f8cc,,,,,,,,,,,,,,,,,,,,PF,,,,,,,,2,1.89214,,,,,,,,,,,,,,,,,,,,,,,,,,,2,-108,-48.5,1,0,0,response5disk,1,185,-16,9.5,1,0,0,rectangle,-16,9.5,1,0,0,7,5,0,0.00047,-16,9.5,1,0,0,0,22,22,9,1,,,,,,,,,,,,,,,,,,,,,
,,,,,,,,,,,,,,,,,,,,,,,,,,,,,,,,,,,,,,,,,,,5dc04255aab19f4906f8d475,5ff3a3d73cc53c9e1d87196f,2021-01-05_00h25.33.527,Colour_Similarity_Experiment_v1,2020.1.2,Win32,60,5ff3a352adaa099f7659f8cc,,,,,,,,,,,,,,,,,,,,FF,,,,,,,,1,0.922335,,,,,,,,,,,,,,,,,,,,,,,,,,,4,-112,40.5,1,0,0,response7disk,3,186,-2,-10.5,1,0,0,rectangle,-2,-10.5,1,0,0,7,7,0,0.000425,-2,-10.5,1,0,0,0,23,23,77,1,,,,,,,,,,,,,,,,,,,,,
,,,,,,,,,,,,,,,,,,,,,,,,,,,,,,,,,,,,,,,,,,,5dc04255aab19f4906f8d475,5ff3a3d73cc53c9e1d87196f,2021-01-05_00h25.33.527,Colour_Similarity_Experiment_v1,2020.1.2,Win32,60,5ff3a352adaa099f7659f8cc,,,,,,,,,,,,,,,,,,,,FF,,,,,,,,1,1.55941,,,,,,,,,,,,,,,,,,,,,,,,,,,3,-114,49.5,1,0,0,response7disk,5,187,8,-5.5,1,0,0,rectangle,8,-5.5,1,0,0,7,5,0,0.000505,8,-5.5,1,0,0,0,24,24,101,1,,,,,,,,,,,,,,,,,,,,,
,,,,,,,,,,,,,,,,,,,,,,,,,,,,,,,,,,,,,,,,,,,5dc04255aab19f4906f8d475,5ff3a3d73cc53c9e1d87196f,2021-01-05_00h25.33.527,Colour_Similarity_Experiment_v1,2020.1.2,Win32,60,5ff3a352adaa099f7659f8cc,,,,,,,,,,,,,,,,,,,,PF,,,,,,,,6,1.26055,,,,,,,,,,,,,,,,,,,,,,,,,,,7,104,60.5,1,0,0,response1disk,9,188,-4,6.5,1,0,0,rectangle,-4,6.5,1,0,0,7,0,0,0.000375,-4,6.5,1,0,0,0,25,25,10,1,,,,,,,,,,,,,,,,,,,,,
,,,,,,,,,,,,,,,,,,,,,,,,,,,,,,,,,,,,,,,,,,,5dc04255aab19f4906f8d475,5ff3a3d73cc53c9e1d87196f,2021-01-05_00h25.33.527,Colour_Similarity_Experiment_v1,2020.1.2,Win32,60,5ff3a352adaa099f7659f8cc,,,,,,,,,,,,,,,,,,,,PF,,,,,,,,3,1.15293,,,,,,,,,,,,,,,,,,,,,,,,,,,5,-58,-106.5,1,0,0,response5disk,7,189,-13,1.5,1,0,0,rectangle,-13,1.5,1,0,0,7,3,0,0.000475,-13,1.5,1,0,0,0,26,26,146,1,,,,,,,,,,,,,,,,,,,,,
,,,,,,,,,,,,,,,,,,,,,,,,,,,,,,,,,,,,,,,,,,,5dc04255aab19f4906f8d475,5ff3a3d73cc53c9e1d87196f,2021-01-05_00h25.33.527,Colour_Similarity_Experiment_v1,2020.1.2,Win32,60,5ff3a352adaa099f7659f8cc,,,,,,,,,,,,,,,,,,,,PF,,,,,,,,5,1.69797,,,,,,,,,,,,,,,,,,,,,,,,,,,9,117,-61.5,1,0,0,response3disk,5,190,10,-5.5,1,0,0,rectangle,10,-5.5,1,0,0,7,0,0,0.00045,10,-5.5,1,0,0,0,27,27,134,1,,,,,,,,,,,,,,,,,,,,,
,,,,,,,,,,,,,,,,,,,,,,,,,,,,,,,,,,,,,,,,,,,5dc04255aab19f4906f8d475,5ff3a3d73cc53c9e1d87196f,2021-01-05_00h25.33.527,Colour_Similarity_Experiment_v1,2020.1.2,Win32,60,5ff3a352adaa099f7659f8cc,,,,,,,,,,,,,,,,,,,,FF,,,,,,,,5,1.01891,,,,,,,,,,,,,,,,,,,,,,,,,,,6,120,-57.5,1,0,0,response3disk,9,191,8,-7.5,1,0,0,rectangle,-49,-135.5,1,0,0,3,3,1,2.122175,-3,-8.5,1,0,0,0,28,28,160,1,response5disk_3,rectangle,,,,,,,,,,,,,,,,,,,
,,,,,,,,,,,,,,,,,,,,,,,,,,,,,,,,,,,,,,,,,,,5dc04255aab19f4906f8d475,5ff3a3d73cc53c9e1d87196f,2021-01-05_00h25.33.527,Colour_Similarity_Experiment_v1,2020.1.2,Win32,60,5ff3a352adaa099f7659f8cc,,,,,,,,,,,,,,,,,,,,FF,,,,,,,,5,0.826225,,,,,,,,,,,,,,,,,,,,,,,,,,,9,141,-64.5,1,0,0,response3disk,5,192,6,2.5,1,0,0,rectangle,6,2.5,1,0,0,3,5,0,0.000425,6,2.5,1,0,0,0,29,29,128,1,,,,,,,,,,,,,,,,,,,,,
,,,,,,,,,,,,,,,,,,,,,,,,,,,,,,,,,,,,,,,,,,,5dc04255aab19f4906f8d475,5ff3a3d73cc53c9e1d87196f,2021-01-05_00h25.33.527,Colour_Similarity_Experiment_v1,2020.1.2,Win32,60,5ff3a352adaa099f7659f8cc,,,,,,,,,,,,,,,,,,,,PF,,,,,,,,6,1.21001,,,,,,,,,,,,,,,,,,,,,,,,,,,9,121,45.5,1,0,0,response1disk,6,193,8,-2.5,1,0,0,rectangle,8,-2.5,1,0,0,3,4,0,0.000415,8,-2.5,1,0,0,0,30,30,148,1,,,,,,,,,,,,,,,,,,,,,
,,,,,,,,,,,,,,,,,,,,,,,,,,,,,,,,,,,,,,,,,,,5dc04255aab19f4906f8d475,5ff3a3d73cc53c9e1d87196f,2021-01-05_00h25.33.527,Colour_Similarity_Experiment_v1,2020.1.2,Win32,60,5ff3a352adaa099f7659f8cc,,,,,,,,,,,,,,,,,,,,FF,,,,,,,,7,1.09145,,,,,,,,,,,,,,,,,,,,,,,,,,,3,65,106.5,1,0,0,response1disk,9,194,7,10.5,1,0,0,rectangle,7,10.5,1,0,0,3,7,0,0.00053,7,10.5,1,0,0,0,31,31,143,1,,,,,,,,,,,,,,,,,,,,,
,,,,,,,,,,,,,,,,,,,,,,,,,,,,,,,,,,,,,,,,,,,5dc04255aab19f4906f8d475,5ff3a3d73cc53c9e1d87196f,2021-01-05_00h25.33.527,Colour_Similarity_Experiment_v1,2020.1.2,Win32,60,5ff3a352adaa099f7659f8cc,,,,,,,,,,,,,,,,,,,,PF,,,,,,,,2,2.40397,,,,,,,,,,,,,,,,,,,,,,,,,,,9,-109,-46.5,1,0,0,response5disk,8,195,-2,-9.5,1,0,0,rectangle,-2,-9.5,1,0,0,3,2,0,0.00045,-2,-9.5,1,0,0,0,32,32,67,1,,,,,,,,,,,,,,,,,,,,,
,,,,,,,,,,,,,,,,,,,,,,,,,,,,,,,,,,,,,,,,,,,5dc04255aab19f4906f8d475,5ff3a3d73cc53c9e1d87196f,2021-01-05_00h25.33.527,Colour_Similarity_Experiment_v1,2020.1.2,Win32,60,5ff3a352adaa099f7659f8cc,,,,,,,,,,,,,,,,,,,,FF,,,,,,,,7,1.10835,,,,,,,,,,,,,,,,,,,,,,,,,,,2,38,118.5,1,0,0,response1disk,7,196,6,-9.5,1,0,0,rectangle,6,-9.5,1,0,0,3,4,0,0.00042,6,-9.5,1,0,0,0,33,33,63,1,,,,,,,,,,,,,,,,,,,,,
,,,,,,,,,,,,,,,,,,,,,,,,,,,,,,,,,,,,,,,,,,,5dc04255aab19f4906f8d475,5ff3a3d73cc53c9e1d87196f,2021-01-05_00h25.33.527,Colour_Similarity_Experiment_v1,2020.1.2,Win32,60,5ff3a352adaa099f7659f8cc,,,,,,,,,,,,,,,,,,,,PF,,,,,,,,7,0.934125,,,,,,,,,,,,,,,,,,,,,,,,,,,4,54,111.5,1,0,0,response1disk,8,197,12,-1.5,1,0,0,rectangle,12,-1.5,1,0,0,3,7,0,0.00051,12,-1.5,1,0,0,0,34,34,124,1,,,,,,,,,,,,,,,,,,,,,
,,,,,,,,,,,,,,,,,,,,,,,,,,,,,,,,,,,,,,,,,,,5dc04255aab19f4906f8d475,5ff3a3d73cc53c9e1d87196f,2021-01-05_00h25.33.527,Colour_Similarity_Experiment_v1,2020.1.2,Win32,60,5ff3a352adaa099f7659f8cc,,,,,,,,,,,,,,,,,,,,FF,,,,,,,,6,0.789505,,,,,,,,,,,,,,,,,,,,,,,,,,,7,117,55.5,1,0,0,response1disk,5,198,24,12.5,1,0,0,rectangle,24,12.5,1,0,0,3,4,0,0.000395,24,12.5,1,0,0,0,35,35,156,1,,,,,,,,,,,,,,,,,,,,,
,,,,,,,,,,,,,,,,,,,,,,,,,,,,,,,,,,,,,,,,,,,5dc04255aab19f4906f8d475,5ff3a3d73cc53c9e1d87196f,2021-01-05_00h25.33.527,Colour_Similarity_Experiment_v1,2020.1.2,Win32,60,5ff3a352adaa099f7659f8cc,,,,,,,,,,,,,,,,,,,,FF,,,,,,,,0,0.846145,,,,,,,,,,,,,,,,,,,,,,,,,,,9,-69,141.5,1,0,0,response7disk,9,199,16,11.5,1,0,0,rectangle,16,11.5,1,0,0,3,1,0,0.000455,16,11.5,1,0,0,0,36,36,17,1,,,,,,,,,,,,,,,,,,,,,
,,,,,,,,,,,,,,,,,,,,,,,,,,,,,,,,,,,,,,,,,,,5dc04255aab19f4906f8d475,5ff3a3d73cc53c9e1d87196f,2021-01-05_00h25.33.527,Colour_Similarity_Experiment_v1,2020.1.2,Win32,60,5ff3a352adaa099f7659f8cc,,,,,,,,,,,,,,,,,,,,FF,,,,,,,,0,0.733555,,,,,,,,,,,,,,,,,,,,,,,,,,,2,-53,117.5,1,0,0,response7disk,2,200,21,17.5,1,0,0,rectangle,21,17.5,1,0,0,3,4,0,0.000415,21,17.5,1,0,0,0,37,37,142,1,,,,,,,,,,,,,,,,,,,,,
,,,,,,,,,,,,,,,,,,,,,,,,,,,,,,,,,,,,,,,,,,,5dc04255aab19f4906f8d475,5ff3a3d73cc53c9e1d87196f,2021-01-05_00h25.33.527,Colour_Similarity_Experiment_v1,2020.1.2,Win32,60,5ff3a352adaa099f7659f8cc,,,,,,,,,,,,,,,,,,,,FF,,,,,,,,2,0.96487,,,,,,,,,,,,,,,,,,,,,,,,,,,8,-95,-56.5,1,0,0,response5disk,7,201,-2,0.5,1,0,0,rectangle,-2,0.5,1,0,0,3,1,0,0.000385,-2,0.5,1,0,0,0,38,38,86,1,,,,,,,,,,,,,,,,,,,,,
,,,,,,,,,,,,,,,,,,,,,,,,,,,,,,,,,,,,,,,,,,,5dc04255aab19f4906f8d475,5ff3a3d73cc53c9e1d87196f,2021-01-05_00h25.33.527,Colour_Similarity_Experiment_v1,2020.1.2,Win32,60,5ff3a352adaa099f7659f8cc,,,,,,,,,,,,,,,,,,,,FF,,,,,,,,7,0.87919,,,,,,,,,,,,,,,,,,,,,,,,,,,7,51,118.5,1,0,0,response1disk,1,202,0,7.5,1,0,0,rectangle,0,7.5,1,0,0,3,1,0,0.00043,0,7.5,1,0,0,0,39,39,132,1,,,,,,,,,,,,,,,,,,,,,
,,,,,,,,,,,,,,,,,,,,,,,,,,,,,,,,,,,,,,,,,,,5dc04255aab19f4906f8d475,5ff3a3d73cc53c9e1d87196f,2021-01-05_00h25.33.527,Colour_Similarity_Experiment_v1,2020.1.2,Win32,60,5ff3a352adaa099f7659f8cc,,,,,,,,,,,,,,,,,,,,PF,,,,,,,,2,1.04178,,,,,,,,,,,,,,,,,,,,,,,,,,,7,-99,-42.5,1,0,0,response5disk,6,203,3,-1.5,1,0,0,rectangle,3,-1.5,1,0,0,3,2,0,0.00043,3,-1.5,1,0,0,0,40,40,29,1,,,,,,,,,,,,,,,,,,,,,
,,,,,,,,,,,,,,,,,,,,,,,,,,,,,,,,,,,,,,,,,,,5dc04255aab19f4906f8d475,5ff3a3d73cc53c9e1d87196f,2021-01-05_00h25.33.527,Colour_Similarity_Experiment_v1,2020.1.2,Win32,60,5ff3a352adaa099f7659f8cc,,,,,,,,,,,,,,,,,,,,FF,,,,,,,,4,1.023895,,,,,,,,,,,,,,,,,,,,,,,,,,,6,66,-121.5,1,0,0,response3disk,8,204,8,6.5,1,0,0,rectangle,8,6.5,1,0,0,3,2,0,0.000465,8,6.5,1,0,0,0,41,41,133,1,,,,,,,,,,,,,,,,,,,,,
,,,,,,,,,,,,,,,,,,,,,,,,,,,,,,,,,,,,,,,,,,,5dc04255aab19f4906f8d475,5ff3a3d73cc53c9e1d87196f,2021-01-05_00h25.33.527,Colour_Similarity_Experiment_v1,2020.1.2,Win32,60,5ff3a352adaa099f7659f8cc,,,,,,,,,,,,,,,,,,,,PF,,,,,,,,1,1.566355,,,,,,,,,,,,,,,,,,,,,,,,,,,3,-112,40.5,1,0,0,response7disk,5,205,-19,-3.5,1,0,0,rectangle,-19,-3.5,1,0,0,3,1,0,0.0007,-19,-3.5,1,0,0,0,42,42,66,1,,,,,,,,,,,,,,,,,,,,,
,,,,,,,,,,,,,,,,,,,,,,,,,,,,,,,,,,,,,,,,,,,5dc04255aab19f4906f8d475,5ff3a3d73cc53c9e1d87196f,2021-01-05_00h25.33.527,Colour_Similarity_Experiment_v1,2020.1.2,Win32,60,5ff3a352adaa099f7659f8cc,,,,,,,,,,,,,,,,,,,,PF,,,,,,,,6,1.251135,,,,,,,,,,,,,,,,,,,,,,,,,,,3,120,59.5,1,0,0,response1disk,9,206,-1,-6.5,1,0,0,rectangle,-1,-6.5,1,0,0,3,6,0,0.00041,-1,-6.5,1,0,0,0,43,43,79,1,,,,,,,,,,,,,,,,,,,,,
,,,,,,,,,,,,,,,,,,,,,,,,,,,,,,,,,,,,,,,,,,,5dc04255aab19f4906f8d475,5ff3a3d73cc53c9e1d87196f,2021-01-05_00h25.33.527,Colour_Similarity_Experiment_v1,2020.1.2,Win32,60,5ff3a352adaa099f7659f8cc,,,,,,,,,,,,,,,,,,,,PF,,,,,,,,7,0.9777,,,,,,,,,,,,,,,,,,,,,,,,,,,8,63,130.5,1,0,0,response1disk,4,207,6,0.5,1,0,0,rectangle,6,0.5,1,0,0,3,0,0,0.000385,6,0.5,1,0,0,0,44,44,78,1,,,,,,,,,,,,,,,,,,,,,
,,,,,,,,,,,,,,,,,,,,,,,,,,,,,,,,,,,,,,,,,,,5dc04255aab19f4906f8d475,5ff3a3d73cc53c9e1d87196f,2021-01-05_00h25.33.527,Colour_Similarity_Experiment_v1,2020.1.2,Win32,60,5ff3a352adaa099f7659f8cc,,,,,,,,,,,,,,,,,,,,PF,,,,,,,,7,0.661585,,,,,,,,,,,,,,,,,,,,,,,,,,,4,44,120.5,1,0,0,response1disk,1,208,4,-0.5,1,0,0,rectangle,4,-0.5,1,0,0,3,3,0,0.000455,4,-0.5,1,0,0,0,45,45,115,1,,,,,,,,,,,,,,,,,,,,,
,,,,,,,,,,,,,,,,,,,,,,,,,,,,,,,,,,,,,,,,,,,5dc04255aab19f4906f8d475,5ff3a3d73cc53c9e1d87196f,2021-01-05_00h25.33.527,Colour_Similarity_Experiment_v1,2020.1.2,Win32,60,5ff3a352adaa099f7659f8cc,,,,,,,,,,,,,,,,,,,,PF,,,,,,,,0,0.79587,,,,,,,,,,,,,,,,,,,,,,,,,,,1,-45,122.5,1,0,0,response7disk,1,209,9,6.5,1,0,0,rectangle,-114,-53.5,1,0,0,3,2,1,1.492165,-3,3.5,1,0,0,0,46,46,76,1,response5disk_3,rectangle,,,,,,,,,,,,,,,,,,,
,,,,,,,,,,,,,,,,,,,,,,,,,,,,,,,,,,,,,,,,,,,5dc04255aab19f4906f8d475,5ff3a3d73cc53c9e1d87196f,2021-01-05_00h25.33.527,Colour_Similarity_Experiment_v1,2020.1.2,Win32,60,5ff3a352adaa099f7659f8cc,,,,,,,,,,,,,,,,,,,,PF,,,,,,,,6,0.918,,,,,,,,,,,,,,,,,,,,,,,,,,,5,123,63.5,1,0,0,response1disk,9,210,2,-9.5,1,0,0,rectangle,-53,-119.5,1,0,0,3,3,1,1.46233,-9,-11.5,1,0,0,0,47,47,136,1,response5disk_3,rectangle,,,,,,,,,,,,,,,,,,,
,,,,,,,,,,,,,,,,,,,,,,,,,,,,,,,,,,,,,,,,,,,5dc04255aab19f4906f8d475,5ff3a3d73cc53c9e1d87196f,2021-01-05_00h25.33.527,Colour_Similarity_Experiment_v1,2020.1.2,Win32,60,5ff3a352adaa099f7659f8cc,,,,,,,,,,,,,,,,,,,,FF,,,,,,,,6,0.94621,,,,,,,,,,,,,,,,,,,,,,,,,,,9,127,51.5,1,0,0,response1disk,6,211,29,-4.5,1,0,0,rectangle,29,-4.5,1,0,0,3,5,0,0.000895,29,-4.5,1,0,0,0,48,48,117,1,,,,,,,,,,,,,,,,,,,,,
,,,,,,,,,,,,,,,,,,,,,,,,,,,,,,,,,,,,,,,,,,,5dc04255aab19f4906f8d475,5ff3a3d73cc53c9e1d87196f,2021-01-05_00h25.33.527,Colour_Similarity_Experiment_v1,2020.1.2,Win32,60,5ff3a352adaa099f7659f8cc,,,,,,,,,,,,,,,,,,,,PF,,,,,,,,4,1.23171,,,,,,,,,,,,,,,,,,,,,,,,,,,2,44,-125.5,1,0,0,response3disk,5,212,-8,18.5,1,0,0,rectangle,-8,18.5,1,0,0,3,7,0,0.00048,-8,18.5,1,0,0,0,49,49,147,1,,,,,,,,,,,,,,,,,,,,,
,,,,,,,,,,,,,,,,,,,,,,,,,,,,,,,,,,,,,,,,,,,5dc04255aab19f4906f8d475,5ff3a3d73cc53c9e1d87196f,2021-01-05_00h25.33.527,Colour_Similarity_Experiment_v1,2020.1.2,Win32,60,5ff3a352adaa099f7659f8cc,,,,,,,,,,,,,,,,,,,,PF,,,,,,,,0,0.784595,,,,,,,,,,,,,,,,,,,,,,,,,,,2,-48,105.5,1,0,0,response7disk,2,213,-8,-1.5,1,0,0,rectangle,-8,-1.5,1,0,0,3,0,0,0.000415,-8,-1.5,1,0,0,0,50,50,14,1,,,,,,,,,,,,,,,,,,,,,
,,,,,,,,,,,,,,,,,,,,,,,,,,,,,,,,,,,,,,,,,,,5dc04255aab19f4906f8d475,5ff3a3d73cc53c9e1d87196f,2021-01-05_00h25.33.527,Colour_Similarity_Experiment_v1,2020.1.2,Win32,60,5ff3a352adaa099f7659f8cc,,,,,,,,,,,,,,,,,,,,PF,,,,,,,,7,1.401095,,,,,,,,,,,,,,,,,,,,,,,,,,,9,55,126.5,1,0,0,response1disk,4,214,10,13.5,1,0,0,rectangle,10,13.5,1,0,0,3,4,0,0.001595,10,13.5,1,0,0,0,51,51,114,1,,,,,,,,,,,,,,,,,,,,,
,,,,,,,,,,,,,,,,,,,,,,,,,,,,,,,,,,,,,,,,,,,5dc04255aab19f4906f8d475,5ff3a3d73cc53c9e1d87196f,2021-01-05_00h25.33.527,Colour_Similarity_Experiment_v1,2020.1.2,Win32,60,5ff3a352adaa099f7659f8cc,,,,,,,,,,,,,,,,,,,,PF,,,,,,,,0,0.673295,,,,,,,,,,,,,,,,,,,,,,,,,,,4,-52,132.5,1,0,0,response7disk,4,215,-7,-6.5,1,0,0,rectangle,-7,-6.5,1,0,0,3,6,0,0.000415,-7,-6.5,1,0,0,0,52,52,70,1,,,,,,,,,,,,,,,,,,,,,
,,,,,,,,,,,,,,,,,,,,,,,,,,,,,,,,,,,,,,,,,,,5dc04255aab19f4906f8d475,5ff3a3d73cc53c9e1d87196f,2021-01-05_00h25.33.527,Colour_Similarity_Experiment_v1,2020.1.2,Win32,60,5ff3a352adaa099f7659f8cc,,,,,,,,,,,,,,,,,,,,PF,,,,,,,,6,1.444795,,,,,,,,,,,,,,,,,,,,,,,,,,,6,124,56.5,1,0,0,response1disk,9,216,23,14.5,1,0,0,rectangle,23,14.5,1,0,0,3,5,0,0.00039,23,14.5,1,0,0,0,53,53,45,1,,,,,,,,,,,,,,,,,,,,,
,,,,,,,,,,,,,,,,,,,,,,,,,,,,,,,,,,,,,,,,,,,5dc04255aab19f4906f8d475,5ff3a3d73cc53c9e1d87196f,2021-01-05_00h25.33.527,Colour_Similarity_Experiment_v1,2020.1.2,Win32,60,5ff3a352adaa099f7659f8cc,,,,,,,,,,,,,,,,,,,,FF,,,,,,,,0,0.631365,,,,,,,,,,,,,,,,,,,,,,,,,,,5,-52,122.5,1,0,0,response7disk,5,217,5,3.5,1,0,0,rectangle,5,3.5,1,0,0,3,5,0,0.000415,5,3.5,1,0,0,0,54,54,19,1,,,,,,,,,,,,,,,,,,,,,
,,,,,,,,,,,,,,,,,,,,,,,,,,,,,,,,,,,,,,,,,,,5dc04255aab19f4906f8d475,5ff3a3d73cc53c9e1d87196f,2021-01-05_00h25.33.527,Colour_Similarity_Experiment_v1,2020.1.2,Win32,60,5ff3a352adaa099f7659f8cc,,,,,,,,,,,,,,,,,,,,PF,,,,,,,,7,2.4995,,,,,,,,,,,,,,,,,,,,,,,,,,,1,68,123.5,1,0,0,response1disk,3,218,13,1.5,1,0,0,rectangle,13,1.5,1,0,0,3,2,0,0.00061,13,1.5,1,0,0,0,55,55,1,1,,,,,,,,,,,,,,,,,,,,,
,,,,,,,,,,,,,,,,,,,,,,,,,,,,,,,,,,,,,,,,,,,5dc04255aab19f4906f8d475,5ff3a3d73cc53c9e1d87196f,2021-01-05_00h25.33.527,Colour_Similarity_Experiment_v1,2020.1.2,Win32,60,5ff3a352adaa099f7659f8cc,,,,,,,,,,,,,,,,,,,,PF,,,,,,,,6,0.97698,,,,,,,,,,,,,,,,,,,,,,,,,,,5,106,71.5,1,0,0,response1disk,8,219,-1,7.5,1,0,0,rectangle,-1,7.5,1,0,0,3,4,0,0.000415,-1,7.5,1,0,0,0,56,56,149,1,,,,,,,,,,,,,,,,,,,,,
,,,,,,,,,,,,,,,,,,,,,,,,,,,,,,,,,,,,,,,,,,,5dc04255aab19f4906f8d475,5ff3a3d73cc53c9e1d87196f,2021-01-05_00h25.33.527,Colour_Similarity_Experiment_v1,2020.1.2,Win32,60,5ff3a352adaa099f7659f8cc,,,,,,,,,,,,,,,,,,,,FF,,,,,,,,7,0.869435,,,,,,,,,,,,,,,,,,,,,,,,,,,2,51,131.5,1,0,0,response1disk,8,220,7,5.5,1,0,0,rectangle,7,5.5,1,0,0,3,3,0,0.00038,7,5.5,1,0,0,0,57,57,62,1,,,,,,,,,,,,,,,,,,,,,
,,,,,,,,,,,,,,,,,,,,,,,,,,,,,,,,,,,,,,,,,,,5dc04255aab19f4906f8d475,5ff3a3d73cc53c9e1d87196f,2021-01-05_00h25.33.527,Colour_Similarity_Experiment_v1,2020.1.2,Win32,60,5ff3a352adaa099f7659f8cc,,,,,,,,,,,,,,,,,,,,FF,,,,,,,,5,1.46037,,,,,,,,,,,,,,,,,,,,,,,,,,,6,118,-70.5,1,0,0,response3disk,4,221,3,-7.5,1,0,0,rectangle,3,-7.5,1,0,0,3,2,0,0.000505,3,-7.5,1,0,0,0,58,58,56,1,,,,,,,,,,,,,,,,,,,,,
,,,,,,,,,,,,,,,,,,,,,,,,,,,,,,,,,,,,,,,,,,,5dc04255aab19f4906f8d475,5ff3a3d73cc53c9e1d87196f,2021-01-05_00h25.33.527,Colour_Similarity_Experiment_v1,2020.1.2,Win32,60,5ff3a352adaa099f7659f8cc,,,,,,,,,,,,,,,,,,,,PF,,,,,,,,3,2.351125,,,,,,,,,,,,,,,,,,,,,,,,,,,6,-52,-110.5,1,0,0,response5disk,5,222,-7,0.5,1,0,0,rectangle,-7,0.5,1,0,0,3,4,0,0.0005,-7,0.5,1,0,0,0,59,59,59,1,,,,,,,,,,,,,,,,,,,,,
,,,,,,,,,,,,,,,,,,,,,,,,,,,,,,,,,,,,,,,,,,,5dc04255aab19f4906f8d475,5ff3a3d73cc53c9e1d87196f,2021-01-05_00h25.33.527,Colour_Similarity_Experiment_v1,2020.1.2,Win32,60,5ff3a352adaa099f7659f8cc,,,,,,,,,,,,,,,,,,,,FF,,,,,,,,2,1.098275,,,,,,,,,,,,,,,,,,,,,,,,,,,2,-101,-58.5,1,0,0,response5disk,1,223,5,-1.5,1,0,0,rectangle,5,-1.5,1,0,0,3,5,0,0.000555,5,-1.5,1,0,0,0,60,60,85,1,,,,,,,,,,,,,,,,,,,,,
,,,,,,,,,,,,,,,,,,,,,,,,,,,,,,,,,,,,,,,,,,,5dc04255aab19f4906f8d475,5ff3a3d73cc53c9e1d87196f,2021-01-05_00h25.33.527,Colour_Similarity_Experiment_v1,2020.1.2,Win32,60,5ff3a352adaa099f7659f8cc,,,,,,,,,,,,,,,,,,,,FF,,,,,,,,6,1.15336,,,,,,,,,,,,,,,,,,,,,,,,,,,5,114,68.5,1,0,0,response1disk,9,224,11,-5.5,1,0,0,rectangle,11,-5.5,1,0,0,3,7,0,0.000545,11,-5.5,1,0,0,0,61,61,61,1,,,,,,,,,,,,,,,,,,,,,
,,,,,,,,,,,,,,,,,,,,,,,,,,,,,,,,,,,,,,,,,,,5dc04255aab19f4906f8d475,5ff3a3d73cc53c9e1d87196f,2021-01-05_00h25.33.527,Colour_Similarity_Experiment_v1,2020.1.2,Win32,60,5ff3a352adaa099f7659f8cc,,,,,,,,,,,,,,,,,,,,PF,,,,,,,,5,1.413465,,,,,,,,,,,,,,,,,,,,,,,,,,,2,126,-55.5,1,0,0,response3disk,4,225,0,-2.5,1,0,0,rectangle,0,-2.5,1,0,0,3,4,0,0.00095,0,-2.5,1,0,0,0,62,62,127,1,,,,,,,,,,,,,,,,,,,,,
,,,,,,,,,,,,,,,,,,,,,,,,,,,,,,,,,,,,,,,,,,,5dc04255aab19f4906f8d475,5ff3a3d73cc53c9e1d87196f,2021-01-05_00h25.33.527,Colour_Similarity_Experiment_v1,2020.1.2,Win32,60,5ff3a352adaa099f7659f8cc,,,,,,,,,,,,,,,,,,,,FF,,,,,,,,7,0.758535,,,,,,,,,,,,,,,,,,,,,,,,,,,1,51,132.5,1,0,0,response1disk,7,226,7,5.5,1,0,0,rectangle,7,5.5,1,0,0,3,6,0,0.00046,7,5.5,1,0,0,0,63,63,137,1,,,,,,,,,,,,,,,,,,,,,
,,,,,,,,,,,,,,,,,,,,,,,,,,,,,,,,,,,,,,,,,,,5dc04255aab19f4906f8d475,5ff3a3d73cc53c9e1d87196f,2021-01-05_00h25.33.527,Colour_Similarity_Experiment_v1,2020.1.2,Win32,60,5ff3a352adaa099f7659f8cc,,,,,,,,,,,,,,,,,,,,FF,,,,,,,,5,1.08233,,,,,,,,,,,,,,,,,,,,,,,,,,,3,114,-66.5,1,0,0,response3disk,6,227,8,-14.5,1,0,0,rectangle,8,-14.5,1,0,0,3,2,0,0.000455,8,-14.5,1,0,0,0,64,64,95,1,,,,,,,,,,,,,,,,,,,,,
,,,,,,,,,,,,,,,,,,,,,,,,,,,,,,,,,,,,,,,,,,,5dc04255aab19f4906f8d475,5ff3a3d73cc53c9e1d87196f,2021-01-05_00h25.33.527,Colour_Similarity_Experiment_v1,2020.1.2,Win32,60,5ff3a352adaa099f7659f8cc,,,,,,,,,,,,,,,,,,,,PF,,,,,,,,7,1.18535,,,,,,,,,,,,,,,,,,,,,,,,,,,1,50,104.5,1,0,0,response1disk,6,228,19,2.5,1,0,0,rectangle,19,2.5,1,0,0,3,3,0,0.000505,19,2.5,1,0,0,0,65,65,144,1,,,,,,,,,,,,,,,,,,,,,
,,,,,,,,,,,,,,,,,,,,,,,,,,,,,,,,,,,,,,,,,,,5dc04255aab19f4906f8d475,5ff3a3d73cc53c9e1d87196f,2021-01-05_00h25.33.527,Colour_Similarity_Experiment_v1,2020.1.2,Win32,60,5ff3a352adaa099f7659f8cc,,,,,,,,,,,,,,,,,,,,PF,,,,,,,,7,0.87665,,,,,,,,,,,,,,,,,,,,,,,,,,,3,44,114.5,1,0,0,response1disk,8,229,-1,-1.5,1,0,0,rectangle,-1,-1.5,1,0,0,3,5,0,0.00038,-1,-1.5,1,0,0,0,66,66,3,1,,,,,,,,,,,,,,,,,,,,,
,,,,,,,,,,,,,,,,,,,,,,,,,,,,,,,,,,,,,,,,,,,5dc04255aab19f4906f8d475,5ff3a3d73cc53c9e1d87196f,2021-01-05_00h25.33.527,Colour_Similarity_Experiment_v1,2020.1.2,Win32,60,5ff3a352adaa099f7659f8cc,,,,,,,,,,,,,,,,,,,,FF,,,,,,,,7,0.7769,,,,,,,,,,,,,,,,,,,,,,,,,,,6,56,118.5,1,0,0,response1disk,1,230,11,8.5,1,0,0,rectangle,11,8.5,1,0,0,3,1,0,0.000425,11,8.5,1,0,0,0,67,67,5,1,,,,,,,,,,,,,,,,,,,,,
,,,,,,,,,,,,,,,,,,,,,,,,,,,,,,,,,,,,,,,,,,,5dc04255aab19f4906f8d475,5ff3a3d73cc53c9e1d87196f,2021-01-05_00h25.33.527,Colour_Similarity_Experiment_v1,2020.1.2,Win32,60,5ff3a352adaa099f7659f8cc,,,,,,,,,,,,,,,,,,,,PF,,,,,,,,7,0.921985,,,,,,,,,,,,,,,,,,,,,,,,,,,2,48,114.5,1,0,0,response1disk,8,231,6,1.5,1,0,0,rectangle,6,1.5,1,0,0,3,0,0,0.000385,6,1.5,1,0,0,0,68,68,52,1,,,,,,,,,,,,,,,,,,,,,
,,,,,,,,,,,,,,,,,,,,,,,,,,,,,,,,,,,,,,,,,,,5dc04255aab19f4906f8d475,5ff3a3d73cc53c9e1d87196f,2021-01-05_00h25.33.527,Colour_Similarity_Experiment_v1,2020.1.2,Win32,60,5ff3a352adaa099f7659f8cc,,,,,,,,,,,,,,,,,,,,PF,,,,,,,,2,1.22536,,,,,,,,,,,,,,,,,,,,,,,,,,,6,-104,-53.5,1,0,0,response5disk,8,232,0,16.5,1,0,0,rectangle,0,16.5,1,0,0,3,4,0,0.00053,0,16.5,1,0,0,0,69,69,64,1,,,,,,,,,,,,,,,,,,,,,
,,,,,,,,,,,,,,,,,,,,,,,,,,,,,,,,,,,,,,,,,,,5dc04255aab19f4906f8d475,5ff3a3d73cc53c9e1d87196f,2021-01-05_00h25.33.527,Colour_Similarity_Experiment_v1,2020.1.2,Win32,60,5ff3a352adaa099f7659f8cc,,,,,,,,,,,,,,,,,,,,PF,,,,,,,,0,0.8389,,,,,,,,,,,,,,,,,,,,,,,,,,,7,-54,135.5,1,0,0,response7disk,7,233,-17,9.5,1,0,0,rectangle,-17,9.5,1,0,0,3,7,0,0.000885,-17,9.5,1,0,0,0,70,70,51,1,,,,,,,,,,,,,,,,,,,,,
