key_resp.keys,key_resp.rt,key_resp_16.keys,key_resp_16.rt,key_resp_2.keys,key_resp_2.rt,X Scale,ratio_pxpermm,screen_size_x,screen_size_y,testsize,key_resp_3.keys,key_resp_3.rt,key_resp_4.keys,key_resp_4.rt,line_size,key_resp_5.keys,key_resp_5.rt,key_resp_6.keys,key_resp_6.rt,key_resp_8.keys,key_resp_8.rt,key_resp_7.keys,key_resp_7.rt,key_resp_12.keys,key_resp_12.rt,key_resp_11.keys,key_resp_11.rt,key_resp_18.keys,key_resp_18.rt,key_resp_21.keys,key_resp_21.rt,key_resp_13.keys,key_resp_13.rt,key_resp_19.keys,key_resp_19.rt,ballposx,viewer_distance,trials.thisRepN,trials.thisTrialN,trials.thisN,trials.thisIndex,trials.ran,participant,session,date,expName,psychopyVersion,OS,frameRate,study_id,viewerdistancecm,DVA_to_distance,radius_F,radius_P,r_F,R_P,key_resp_20.keys,key_resp_20.rt,key_resp_14.keys,key_resp_14.rt,key_resp_15.keys,key_resp_15.rt,key_resp_17.keys,key_resp_17.rt,key_resp_9.keys,key_resp_9.rt,key_resp_10.keys,key_resp_10.rt,Colour_1,Ecc,mouse_5.x,mouse_5.y,mouse_5.leftButton,mouse_5.midButton,mouse_5.rightButton,mouse_5.clicked_name,Colour_2,similarity,response_time,mouse_10.x,mouse_10.y,mouse_10.leftButton,mouse_10.midButton,mouse_10.rightButton,mouse_10.clicked_name,mouse_7.x,mouse_7.y,mouse_7.leftButton,mouse_7.midButton,mouse_7.rightButton,catchnumberprac,mouse_6.x,mouse_6.y,mouse_6.leftButton,mouse_6.midButton,mouse_6.rightButton,duringprac.thisRepN,duringprac.thisTrialN,duringprac.thisN,duringprac.thisIndex,duringprac.ran,mouse_7.clicked_name,catchprac,mouse_6.clicked_name,key_resp_22.keys,key_resp_22.rt,Colour1,mouse.x,mouse.y,mouse.leftButton,mouse.midButton,mouse.rightButton,mouse.clicked_name,Colour2,trialnumber,mouse_2.x,mouse_2.y,mouse_2.leftButton,mouse_2.midButton,mouse_2.rightButton,mouse_2.clicked_name,mouse_3.x,mouse_3.y,mouse_3.leftButton,mouse_3.midButton,mouse_3.rightButton,catchresponse,catchnumber,Catch,response_time_catch,mouse_11.x,mouse_11.y,mouse_11.leftButton,mouse_11.midButton,mouse_11.rightButton,trials_2.thisRepN,trials_2.thisTrialN,trials_2.thisN,trials_2.thisIndex,trials_2.ran,mouse_3.clicked_name,mouse_11.clicked_name,trials_3.thisRepN,trials_3.thisTrialN,trials_3.thisN,trials_3.thisIndex,trials_3.ran,answer1,rt1,answer2,rt2,answer3,rt3,answer4,rt4,answer5,rt5,answer6,rt6,answer7,rt7
space,5.339,space,10.307,space,5.262,48.1,4.81,266.1122661,166.3201663,1280,space,18.969,space,9.398,96.2,space,14.408,space,3.493,space,1.053,space,6.095,space,6.671,space,6.281,space,20.426,space,17.255,space,16.898,return,6.074,-201.6,617.954058,0,0,0,0,1,5e3f0bbe9907e915e0179f44,5ff3a3f40a5e7fa057a9baed,2021-01-04_23h26.07.443,Colour_Similarity_Experiment_v1,2020.1.2,MacIntel,60,5ff3a352adaa099f7659f8cc,,,,,,,,,,,,,,,,,,,,,,,,,,,,,,,,,,,,,,,,,,,,,,,,,,,,,,,,,,,,,,,,,,,,,,,,,,,,,,,,,,,,,,,,,,,,,,,,,,,,,,,,,,,,,,,
,,,,,,,,,,,,,,,,,,,,,,,,,,,,,,,,,,return,6.09,-195.84,612.9660881,1,0,1,0,1,5e3f0bbe9907e915e0179f44,5ff3a3f40a5e7fa057a9baed,2021-01-04_23h26.07.443,Colour_Similarity_Experiment_v1,2020.1.2,MacIntel,60,5ff3a352adaa099f7659f8cc,,,,,,,,,,,,,,,,,,,,,,,,,,,,,,,,,,,,,,,,,,,,,,,,,,,,,,,,,,,,,,,,,,,,,,,,,,,,,,,,,,,,,,,,,,,,,,,,,,,,,,,,,,,,,,,
,,,,,,,,,,,,,,,,,,,,,,,,,,,,,,,,,,return,5.764,-170.88,591.3515515,2,0,2,0,1,5e3f0bbe9907e915e0179f44,5ff3a3f40a5e7fa057a9baed,2021-01-04_23h26.07.443,Colour_Similarity_Experiment_v1,2020.1.2,MacIntel,60,5ff3a352adaa099f7659f8cc,,,,,,,,,,,,,,,,,,,,,,,,,,,,,,,,,,,,,,,,,,,,,,,,,,,,,,,,,,,,,,,,,,,,,,,,,,,,,,,,,,,,,,,,,,,,,,,,,,,,,,,,,,,,,,,
,,,,,,,,,,,,,,,,,,,,,,,,,,,,,,,,,,return,5.68,-157.44,579.7129549,3,0,3,0,1,5e3f0bbe9907e915e0179f44,5ff3a3f40a5e7fa057a9baed,2021-01-04_23h26.07.443,Colour_Similarity_Experiment_v1,2020.1.2,MacIntel,60,5ff3a352adaa099f7659f8cc,,,,,,,,,,,,,,,,,,,,,,,,,,,,,,,,,,,,,,,,,,,,,,,,,,,,,,,,,,,,,,,,,,,,,,,,,,,,,,,,,,,,,,,,,,,,,,,,,,,,,,,,,,,,,,,
,,,,,,,,,,,,,,,,,,,,,,,,,,,,,,,,,,return,5.848,-172.8,593.0142082,4,0,4,0,1,5e3f0bbe9907e915e0179f44,5ff3a3f40a5e7fa057a9baed,2021-01-04_23h26.07.443,Colour_Similarity_Experiment_v1,2020.1.2,MacIntel,60,5ff3a352adaa099f7659f8cc,,,,,,,,,,,,,,,,,,,,,,,,,,,,,,,,,,,,,,,,,,,,,,,,,,,,,,,,,,,,,,,,,,,,,,,,,,,,,,,,,,,,,,,,,,,,,,,,,,,,,,,,,,,,,,,
,,,,,,,,,,,,,,,,,,,,,,,,,,,,,,,,,,,,,,,,,,,5e3f0bbe9907e915e0179f44,5ff3a3f40a5e7fa057a9baed,2021-01-04_23h26.07.443,Colour_Similarity_Experiment_v1,2020.1.2,MacIntel,60,5ff3a352adaa099f7659f8cc,59,10.29848462,74.30356657,495.3571104,49.53571104,222.9106997,space,4.384,space,6.39,space,23.393,space,10.639,space,1.993,space,5.045,9,PF,-70,34,1,0,0,response7disk_5,3,1,18.799,2,6,1,0,0,rectangle_8,2,6,1,0,0,3,2,6,1,0,0,0,0,0,1,1,,,,,,,,,,,,,,,,,,,,,,,,,,,,,,,,,,,,,,,,,,,,,,,,,,,,,,,,,,,,
,,,,,,,,,,,,,,,,,,,,,,,,,,,,,,,,,,,,,,,,,,,5e3f0bbe9907e915e0179f44,5ff3a3f40a5e7fa057a9baed,2021-01-04_23h26.07.443,Colour_Similarity_Experiment_v1,2020.1.2,MacIntel,60,5ff3a352adaa099f7659f8cc,,,,,,,,,,,,,,,,,,,2,FF,-36,87,1,0,0,response7disk_5,2,0,4.954,1,-4,1,0,0,rectangle_8,-39,-70,1,0,0,3,1,1,1,0,0,0,1,1,3,1,response5disk_7,3,rectangle_4,,,,,,,,,,,,,,,,,,,,,,,,,,,,,,,,,,,,,,,,,,,,,,,,,,,,,,,,,
,,,,,,,,,,,,,,,,,,,,,,,,,,,,,,,,,,,,,,,,,,,5e3f0bbe9907e915e0179f44,5ff3a3f40a5e7fa057a9baed,2021-01-04_23h26.07.443,Colour_Similarity_Experiment_v1,2020.1.2,MacIntel,60,5ff3a352adaa099f7659f8cc,,,,,,,,,,,,,,,,,,,5,PF,53,76,1,0,0,response1disk_5,9,7,3.678,3,7,1,0,0,rectangle_8,3,7,1,0,0,3,3,7,1,0,0,0,2,2,4,1,,,,,,,,,,,,,,,,,,,,,,,,,,,,,,,,,,,,,,,,,,,,,,,,,,,,,,,,,,,,
,,,,,,,,,,,,,,,,,,,,,,,,,,,,,,,,,,,,,,,,,,,5e3f0bbe9907e915e0179f44,5ff3a3f40a5e7fa057a9baed,2021-01-04_23h26.07.443,Colour_Similarity_Experiment_v1,2020.1.2,MacIntel,60,5ff3a352adaa099f7659f8cc,,,,,,,,,,,,,,,,,,,5,PF,82,56,1,0,0,response1disk_5,2,6,2.286,-22,-13,1,0,0,rectangle_8,-42,-78,1,0,0,3,2,-7,1,0,0,0,3,3,2,1,response5disk_7,3,rectangle_4,,,,,,,,,,,,,,,,,,,,,,,,,,,,,,,,,,,,,,,,,,,,,,,,,,,,,,,,,
,,,,,,,,,,,,,,,,,,,,,,,,,,,,,,,,,,,,,,,,,,,5e3f0bbe9907e915e0179f44,5ff3a3f40a5e7fa057a9baed,2021-01-04_23h26.07.443,Colour_Similarity_Experiment_v1,2020.1.2,MacIntel,60,5ff3a352adaa099f7659f8cc,,,,,,,,,,,,,,,,,,,6,FF,-19,66,1,0,0,response7disk_5,6,0,1.792,-18,-9,1,0,0,rectangle_8,-18,-9,1,0,0,3,-18,-9,1,0,0,0,4,4,5,1,,,,,,,,,,,,,,,,,,,,,,,,,,,,,,,,,,,,,,,,,,,,,,,,,,,,,,,,,,,,
,,,,,,,,,,,,,,,,,,,,,,,,,,,,,,,,,,,,,,,,,,,5e3f0bbe9907e915e0179f44,5ff3a3f40a5e7fa057a9baed,2021-01-04_23h26.07.443,Colour_Similarity_Experiment_v1,2020.1.2,MacIntel,60,5ff3a352adaa099f7659f8cc,,,,,,,,,,,,,,,,,,,2,PF,24,84,1,0,0,response1disk_5,8,7,2.641,-1,-14,1,0,0,rectangle_8,-1,-14,1,0,0,3,-1,-14,1,0,0,0,5,5,6,1,,,,,,,,,,,,,,,,,,,,,,,,,,,,,,,,,,,,,,,,,,,,,,,,,,,,,,,,,,,,
,,,,,,,,,,,,,,,,,,,,,,,,,,,,,,,,,,,,,,,,,,,5e3f0bbe9907e915e0179f44,5ff3a3f40a5e7fa057a9baed,2021-01-04_23h26.07.443,Colour_Similarity_Experiment_v1,2020.1.2,MacIntel,60,5ff3a352adaa099f7659f8cc,,,,,,,,,,,,,,,,,,,1,FF,89,-41,1,0,0,response3disk_5,8,5,2.617,-9,3,1,0,0,rectangle_8,-9,3,1,0,0,3,-9,3,1,0,0,0,6,6,0,1,,,,,,,,,,,,,,,,,,,,,,,,,,,,,,,,,,,,,,,,,,,,,,,,,,,,,,,,,,,,
,,,,,,,,,,,,,,,,,,,,,,,,,,,,,,,,,,,,,,,,,,,5e3f0bbe9907e915e0179f44,5ff3a3f40a5e7fa057a9baed,2021-01-04_23h26.07.443,Colour_Similarity_Experiment_v1,2020.1.2,MacIntel,60,5ff3a352adaa099f7659f8cc,,,,,,,,,,,,,,,,,,,,FF,,,,,,,,3,3.36,,,,,,,,,,,,,,,,,,,,,,,,,,space,3.345,6,-42,-68,1,0,0,response5disk,5,1,-5,3,1,0,0,rectangle,-5,3,1,0,0,,1,0,0.01,-5,3,1,0,0,0,0,0,126,1,,,,,,,,,,,,,,,,,,,,,
,,,,,,,,,,,,,,,,,,,,,,,,,,,,,,,,,,,,,,,,,,,5e3f0bbe9907e915e0179f44,5ff3a3f40a5e7fa057a9baed,2021-01-04_23h26.07.443,Colour_Similarity_Experiment_v1,2020.1.2,MacIntel,60,5ff3a352adaa099f7659f8cc,,,,,,,,,,,,,,,,,,,,FF,,,,,,,,7,1.816,,,,,,,,,,,,,,,,,,,,,,,,,,,,6,63,93,1,0,0,response1disk,9,2,4,-4,1,0,0,rectangle,-67,-33,1,0,0,,2,1,2.423,-4,-6,1,0,0,0,1,1,160,1,response5disk_3,rectangle,,,,,,,,,,,,,,,,,,,
,,,,,,,,,,,,,,,,,,,,,,,,,,,,,,,,,,,,,,,,,,,5e3f0bbe9907e915e0179f44,5ff3a3f40a5e7fa057a9baed,2021-01-04_23h26.07.443,Colour_Similarity_Experiment_v1,2020.1.2,MacIntel,60,5ff3a352adaa099f7659f8cc,,,,,,,,,,,,,,,,,,,,PF,,,,,,,,7,1.688,,,,,,,,,,,,,,,,,,,,,,,,,,,,2,47,71,1,0,0,response1disk,9,3,-1,1,1,0,0,rectangle,-1,1,1,0,0,,4,0,0.006,-1,1,1,0,0,0,2,2,39,1,,,,,,,,,,,,,,,,,,,,,
,,,,,,,,,,,,,,,,,,,,,,,,,,,,,,,,,,,,,,,,,,,5e3f0bbe9907e915e0179f44,5ff3a3f40a5e7fa057a9baed,2021-01-04_23h26.07.443,Colour_Similarity_Experiment_v1,2020.1.2,MacIntel,60,5ff3a352adaa099f7659f8cc,,,,,,,,,,,,,,,,,,,,PF,,,,,,,,7,1.521,,,,,,,,,,,,,,,,,,,,,,,,,,,,2,56,77,1,0,0,response1disk,8,4,6,6,1,0,0,rectangle,6,6,1,0,0,,7,0,0.002,6,6,1,0,0,0,3,3,52,1,,,,,,,,,,,,,,,,,,,,,
,,,,,,,,,,,,,,,,,,,,,,,,,,,,,,,,,,,,,,,,,,,5e3f0bbe9907e915e0179f44,5ff3a3f40a5e7fa057a9baed,2021-01-04_23h26.07.443,Colour_Similarity_Experiment_v1,2020.1.2,MacIntel,60,5ff3a352adaa099f7659f8cc,,,,,,,,,,,,,,,,,,,,FF,,,,,,,,6,1.437,,,,,,,,,,,,,,,,,,,,,,,,,,,,3,91,45,1,0,0,response1disk,1,5,-2,-8,1,0,0,rectangle,-2,-8,1,0,0,,0,0,0.002,-2,-8,1,0,0,0,4,4,125,1,,,,,,,,,,,,,,,,,,,,,
,,,,,,,,,,,,,,,,,,,,,,,,,,,,,,,,,,,,,,,,,,,5e3f0bbe9907e915e0179f44,5ff3a3f40a5e7fa057a9baed,2021-01-04_23h26.07.443,Colour_Similarity_Experiment_v1,2020.1.2,MacIntel,60,5ff3a352adaa099f7659f8cc,,,,,,,,,,,,,,,,,,,,PF,,,,,,,,6,1.304,,,,,,,,,,,,,,,,,,,,,,,,,,,,9,75,33,1,0,0,response1disk,3,6,6,-5,1,0,0,rectangle,6,-5,1,0,0,,6,0,0.003,6,-5,1,0,0,0,5,5,119,1,,,,,,,,,,,,,,,,,,,,,
,,,,,,,,,,,,,,,,,,,,,,,,,,,,,,,,,,,,,,,,,,,5e3f0bbe9907e915e0179f44,5ff3a3f40a5e7fa057a9baed,2021-01-04_23h26.07.443,Colour_Similarity_Experiment_v1,2020.1.2,MacIntel,60,5ff3a352adaa099f7659f8cc,,,,,,,,,,,,,,,,,,,,FF,,,,,,,,6,1.27,,,,,,,,,,,,,,,,,,,,,,,,,,,,9,61,60,1,0,0,response1disk,6,7,19,2,1,0,0,rectangle,19,2,1,0,0,,3,0,0.004,19,2,1,0,0,0,6,6,117,1,,,,,,,,,,,,,,,,,,,,,
,,,,,,,,,,,,,,,,,,,,,,,,,,,,,,,,,,,,,,,,,,,5e3f0bbe9907e915e0179f44,5ff3a3f40a5e7fa057a9baed,2021-01-04_23h26.07.443,Colour_Similarity_Experiment_v1,2020.1.2,MacIntel,60,5ff3a352adaa099f7659f8cc,,,,,,,,,,,,,,,,,,,,FF,,,,,,,,5,1.525,,,,,,,,,,,,,,,,,,,,,,,,,,,,3,79,-23,1,0,0,response3disk,2,8,0,-6,1,0,0,rectangle,0,-6,1,0,0,,4,0,0.004,0,-6,1,0,0,0,7,7,93,1,,,,,,,,,,,,,,,,,,,,,
,,,,,,,,,,,,,,,,,,,,,,,,,,,,,,,,,,,,,,,,,,,5e3f0bbe9907e915e0179f44,5ff3a3f40a5e7fa057a9baed,2021-01-04_23h26.07.443,Colour_Similarity_Experiment_v1,2020.1.2,MacIntel,60,5ff3a352adaa099f7659f8cc,,,,,,,,,,,,,,,,,,,,FF,,,,,,,,6,1.188,,,,,,,,,,,,,,,,,,,,,,,,,,,,5,91,36,1,0,0,response1disk,2,9,20,-7,1,0,0,rectangle,51,-69,1,0,0,4,4,1,2.538,2,-16,1,0,0,0,8,8,55,1,response3disk_3,rectangle,,,,,,,,,,,,,,,,,,,
,,,,,,,,,,,,,,,,,,,,,,,,,,,,,,,,,,,,,,,,,,,5e3f0bbe9907e915e0179f44,5ff3a3f40a5e7fa057a9baed,2021-01-04_23h26.07.443,Colour_Similarity_Experiment_v1,2020.1.2,MacIntel,60,5ff3a352adaa099f7659f8cc,,,,,,,,,,,,,,,,,,,,FF,,,,,,,,7,1.119,,,,,,,,,,,,,,,,,,,,,,,,,,,,1,26,66,1,0,0,response1disk,6,10,18,3,1,0,0,rectangle,18,3,1,0,0,4,5,0,0.009,18,3,1,0,0,0,9,9,58,1,,,,,,,,,,,,,,,,,,,,,
,,,,,,,,,,,,,,,,,,,,,,,,,,,,,,,,,,,,,,,,,,,5e3f0bbe9907e915e0179f44,5ff3a3f40a5e7fa057a9baed,2021-01-04_23h26.07.443,Colour_Similarity_Experiment_v1,2020.1.2,MacIntel,60,5ff3a352adaa099f7659f8cc,,,,,,,,,,,,,,,,,,,,FF,,,,,,,,3,3.843,,,,,,,,,,,,,,,,,,,,,,,,,,,,6,-49,-92,1,0,0,response5disk,7,11,-7,-11,1,0,0,rectangle,-7,-11,1,0,0,4,4,0,0.002,-7,-11,1,0,0,0,10,10,18,1,,,,,,,,,,,,,,,,,,,,,
,,,,,,,,,,,,,,,,,,,,,,,,,,,,,,,,,,,,,,,,,,,5e3f0bbe9907e915e0179f44,5ff3a3f40a5e7fa057a9baed,2021-01-04_23h26.07.443,Colour_Similarity_Experiment_v1,2020.1.2,MacIntel,60,5ff3a352adaa099f7659f8cc,,,,,,,,,,,,,,,,,,,,PF,,,,,,,,5,1.37,,,,,,,,,,,,,,,,,,,,,,,,,,,,6,74,-50,1,0,0,response3disk,3,12,2,-6,1,0,0,rectangle,2,-6,1,0,0,4,0,0,0.002,2,-6,1,0,0,0,11,11,26,1,,,,,,,,,,,,,,,,,,,,,
,,,,,,,,,,,,,,,,,,,,,,,,,,,,,,,,,,,,,,,,,,,5e3f0bbe9907e915e0179f44,5ff3a3f40a5e7fa057a9baed,2021-01-04_23h26.07.443,Colour_Similarity_Experiment_v1,2020.1.2,MacIntel,60,5ff3a352adaa099f7659f8cc,,,,,,,,,,,,,,,,,,,,PF,,,,,,,,7,1.47,,,,,,,,,,,,,,,,,,,,,,,,,,,,1,23,56,1,0,0,response1disk,5,13,10,3,1,0,0,rectangle,10,3,1,0,0,4,2,0,0.002,10,3,1,0,0,0,12,12,28,1,,,,,,,,,,,,,,,,,,,,,
,,,,,,,,,,,,,,,,,,,,,,,,,,,,,,,,,,,,,,,,,,,5e3f0bbe9907e915e0179f44,5ff3a3f40a5e7fa057a9baed,2021-01-04_23h26.07.443,Colour_Similarity_Experiment_v1,2020.1.2,MacIntel,60,5ff3a352adaa099f7659f8cc,,,,,,,,,,,,,,,,,,,,FF,,,,,,,,5,1.535,,,,,,,,,,,,,,,,,,,,,,,,,,,,5,93,-31,1,0,0,response3disk,6,14,-13,0,1,0,0,rectangle,-13,0,1,0,0,4,3,0,0.003,-13,0,1,0,0,0,13,13,12,1,,,,,,,,,,,,,,,,,,,,,
,,,,,,,,,,,,,,,,,,,,,,,,,,,,,,,,,,,,,,,,,,,5e3f0bbe9907e915e0179f44,5ff3a3f40a5e7fa057a9baed,2021-01-04_23h26.07.443,Colour_Similarity_Experiment_v1,2020.1.2,MacIntel,60,5ff3a352adaa099f7659f8cc,,,,,,,,,,,,,,,,,,,,PF,,,,,,,,6,1.356,,,,,,,,,,,,,,,,,,,,,,,,,,,,6,90,22,1,0,0,response1disk,8,15,22,-3,1,0,0,rectangle,22,-3,1,0,0,4,0,0,0.003,22,-3,1,0,0,0,14,14,64,1,,,,,,,,,,,,,,,,,,,,,
,,,,,,,,,,,,,,,,,,,,,,,,,,,,,,,,,,,,,,,,,,,5e3f0bbe9907e915e0179f44,5ff3a3f40a5e7fa057a9baed,2021-01-04_23h26.07.443,Colour_Similarity_Experiment_v1,2020.1.2,MacIntel,60,5ff3a352adaa099f7659f8cc,,,,,,,,,,,,,,,,,,,,FF,,,,,,,,6,2.306,,,,,,,,,,,,,,,,,,,,,,,,,,,,1,95,24,1,0,0,response1disk,8,16,-9,-2,1,0,0,rectangle,-9,-2,1,0,0,4,1,0,0.003,-9,-2,1,0,0,0,15,15,27,1,,,,,,,,,,,,,,,,,,,,,
,,,,,,,,,,,,,,,,,,,,,,,,,,,,,,,,,,,,,,,,,,,5e3f0bbe9907e915e0179f44,5ff3a3f40a5e7fa057a9baed,2021-01-04_23h26.07.443,Colour_Similarity_Experiment_v1,2020.1.2,MacIntel,60,5ff3a352adaa099f7659f8cc,,,,,,,,,,,,,,,,,,,,FF,,,,,,,,7,1.068,,,,,,,,,,,,,,,,,,,,,,,,,,,,2,31,53,1,0,0,response1disk,7,17,12,4,1,0,0,rectangle,12,4,1,0,0,4,2,0,0.002,12,4,1,0,0,0,16,16,63,1,,,,,,,,,,,,,,,,,,,,,
,,,,,,,,,,,,,,,,,,,,,,,,,,,,,,,,,,,,,,,,,,,5e3f0bbe9907e915e0179f44,5ff3a3f40a5e7fa057a9baed,2021-01-04_23h26.07.443,Colour_Similarity_Experiment_v1,2020.1.2,MacIntel,60,5ff3a352adaa099f7659f8cc,,,,,,,,,,,,,,,,,,,,FF,,,,,,,,7,1.468,,,,,,,,,,,,,,,,,,,,,,,,,,,,4,54,89,1,0,0,response1disk,9,18,14,3,1,0,0,rectangle,14,3,1,0,0,4,0,0,0.001,14,3,1,0,0,0,17,17,90,1,,,,,,,,,,,,,,,,,,,,,
,,,,,,,,,,,,,,,,,,,,,,,,,,,,,,,,,,,,,,,,,,,5e3f0bbe9907e915e0179f44,5ff3a3f40a5e7fa057a9baed,2021-01-04_23h26.07.443,Colour_Similarity_Experiment_v1,2020.1.2,MacIntel,60,5ff3a352adaa099f7659f8cc,,,,,,,,,,,,,,,,,,,,FF,,,,,,,,7,0.956,,,,,,,,,,,,,,,,,,,,,,,,,,,,1,35,66,1,0,0,response1disk,7,19,-8,0,1,0,0,rectangle,-8,0,1,0,0,4,1,0,0.002,-8,0,1,0,0,0,18,18,137,1,,,,,,,,,,,,,,,,,,,,,
,,,,,,,,,,,,,,,,,,,,,,,,,,,,,,,,,,,,,,,,,,,5e3f0bbe9907e915e0179f44,5ff3a3f40a5e7fa057a9baed,2021-01-04_23h26.07.443,Colour_Similarity_Experiment_v1,2020.1.2,MacIntel,60,5ff3a352adaa099f7659f8cc,,,,,,,,,,,,,,,,,,,,FF,,,,,,,,7,1.037,,,,,,,,,,,,,,,,,,,,,,,,,,,,7,24,53,1,0,0,response1disk,3,20,12,0,1,0,0,rectangle,12,0,1,0,0,4,4,0,0.002,12,0,1,0,0,0,19,19,73,1,,,,,,,,,,,,,,,,,,,,,
,,,,,,,,,,,,,,,,,,,,,,,,,,,,,,,,,,,,,,,,,,,5e3f0bbe9907e915e0179f44,5ff3a3f40a5e7fa057a9baed,2021-01-04_23h26.07.443,Colour_Similarity_Experiment_v1,2020.1.2,MacIntel,60,5ff3a352adaa099f7659f8cc,,,,,,,,,,,,,,,,,,,,PF,,,,,,,,4,2.121,,,,,,,,,,,,,,,,,,,,,,,,,,,,8,27,-83,1,0,0,response3disk,9,21,16,-8,1,0,0,rectangle,16,-8,1,0,0,4,6,0,0.004,16,-8,1,0,0,0,20,20,42,1,,,,,,,,,,,,,,,,,,,,,
,,,,,,,,,,,,,,,,,,,,,,,,,,,,,,,,,,,,,,,,,,,5e3f0bbe9907e915e0179f44,5ff3a3f40a5e7fa057a9baed,2021-01-04_23h26.07.443,Colour_Similarity_Experiment_v1,2020.1.2,MacIntel,60,5ff3a352adaa099f7659f8cc,,,,,,,,,,,,,,,,,,,,FF,,,,,,,,4,1.236,,,,,,,,,,,,,,,,,,,,,,,,,,,,9,29,-96,1,0,0,response3disk,8,22,-2,0,1,0,0,rectangle,-2,0,1,0,0,4,6,0,0.002,-2,0,1,0,0,0,21,21,6,1,,,,,,,,,,,,,,,,,,,,,
,,,,,,,,,,,,,,,,,,,,,,,,,,,,,,,,,,,,,,,,,,,5e3f0bbe9907e915e0179f44,5ff3a3f40a5e7fa057a9baed,2021-01-04_23h26.07.443,Colour_Similarity_Experiment_v1,2020.1.2,MacIntel,60,5ff3a352adaa099f7659f8cc,,,,,,,,,,,,,,,,,,,,FF,,,,,,,,6,1.089,,,,,,,,,,,,,,,,,,,,,,,,,,,,6,68,31,1,0,0,response1disk,3,23,14,-1,1,0,0,rectangle,14,-1,1,0,0,4,7,0,0.003,14,-1,1,0,0,0,22,22,21,1,,,,,,,,,,,,,,,,,,,,,
,,,,,,,,,,,,,,,,,,,,,,,,,,,,,,,,,,,,,,,,,,,5e3f0bbe9907e915e0179f44,5ff3a3f40a5e7fa057a9baed,2021-01-04_23h26.07.443,Colour_Similarity_Experiment_v1,2020.1.2,MacIntel,60,5ff3a352adaa099f7659f8cc,,,,,,,,,,,,,,,,,,,,FF,,,,,,,,4,3.809,,,,,,,,,,,,,,,,,,,,,,,,,,,,3,33,-98,1,0,0,response3disk,5,24,1,-3,1,0,0,rectangle,1,-3,1,0,0,4,5,0,0.002,1,-3,1,0,0,0,23,23,101,1,,,,,,,,,,,,,,,,,,,,,
,,,,,,,,,,,,,,,,,,,,,,,,,,,,,,,,,,,,,,,,,,,5e3f0bbe9907e915e0179f44,5ff3a3f40a5e7fa057a9baed,2021-01-04_23h26.07.443,Colour_Similarity_Experiment_v1,2020.1.2,MacIntel,60,5ff3a352adaa099f7659f8cc,,,,,,,,,,,,,,,,,,,,FF,,,,,,,,0,1.201,,,,,,,,,,,,,,,,,,,,,,,,,,,,1,-41,76,1,0,0,response7disk,1,25,-10,8,1,0,0,rectangle,-10,8,1,0,0,4,5,0,0.002,-10,8,1,0,0,0,24,24,151,1,,,,,,,,,,,,,,,,,,,,,
,,,,,,,,,,,,,,,,,,,,,,,,,,,,,,,,,,,,,,,,,,,5e3f0bbe9907e915e0179f44,5ff3a3f40a5e7fa057a9baed,2021-01-04_23h26.07.443,Colour_Similarity_Experiment_v1,2020.1.2,MacIntel,60,5ff3a352adaa099f7659f8cc,,,,,,,,,,,,,,,,,,,,PF,,,,,,,,7,0.919,,,,,,,,,,,,,,,,,,,,,,,,,,,,5,59,77,1,0,0,response1disk,1,26,0,0,1,0,0,rectangle,-75,-41,1,0,0,4,2,1,1.805,-6,-13,1,0,0,0,25,25,159,1,response5disk_3,rectangle,,,,,,,,,,,,,,,,,,,
,,,,,,,,,,,,,,,,,,,,,,,,,,,,,,,,,,,,,,,,,,,5e3f0bbe9907e915e0179f44,5ff3a3f40a5e7fa057a9baed,2021-01-04_23h26.07.443,Colour_Similarity_Experiment_v1,2020.1.2,MacIntel,60,5ff3a352adaa099f7659f8cc,,,,,,,,,,,,,,,,,,,,PF,,,,,,,,6,1.921,,,,,,,,,,,,,,,,,,,,,,,,,,,,7,58,55,1,0,0,response1disk,3,27,28,0,1,0,0,rectangle,28,0,1,0,0,4,4,0,0.002,28,0,1,0,0,0,26,26,81,1,,,,,,,,,,,,,,,,,,,,,
,,,,,,,,,,,,,,,,,,,,,,,,,,,,,,,,,,,,,,,,,,,5e3f0bbe9907e915e0179f44,5ff3a3f40a5e7fa057a9baed,2021-01-04_23h26.07.443,Colour_Similarity_Experiment_v1,2020.1.2,MacIntel,60,5ff3a352adaa099f7659f8cc,,,,,,,,,,,,,,,,,,,,FF,,,,,,,,6,2.122,,,,,,,,,,,,,,,,,,,,,,,,,,,,8,93,27,1,0,0,response1disk,7,28,7,0,1,0,0,rectangle,7,0,1,0,0,4,2,0,0.001,7,0,1,0,0,0,27,27,86,1,,,,,,,,,,,,,,,,,,,,,
,,,,,,,,,,,,,,,,,,,,,,,,,,,,,,,,,,,,,,,,,,,5e3f0bbe9907e915e0179f44,5ff3a3f40a5e7fa057a9baed,2021-01-04_23h26.07.443,Colour_Similarity_Experiment_v1,2020.1.2,MacIntel,60,5ff3a352adaa099f7659f8cc,,,,,,,,,,,,,,,,,,,,PF,,,,,,,,4,1.754,,,,,,,,,,,,,,,,,,,,,,,,,,,,9,42,-85,1,0,0,response3disk,8,29,0,0,1,0,0,rectangle,0,0,1,0,0,4,3,0,0.001,0,0,1,0,0,0,28,28,67,1,,,,,,,,,,,,,,,,,,,,,
,,,,,,,,,,,,,,,,,,,,,,,,,,,,,,,,,,,,,,,,,,,5e3f0bbe9907e915e0179f44,5ff3a3f40a5e7fa057a9baed,2021-01-04_23h26.07.443,Colour_Similarity_Experiment_v1,2020.1.2,MacIntel,60,5ff3a352adaa099f7659f8cc,,,,,,,,,,,,,,,,,,,,PF,,,,,,,,7,1.603,,,,,,,,,,,,,,,,,,,,,,,,,,,,8,28,63,1,0,0,response1disk,2,30,9,-8,1,0,0,rectangle,9,-8,1,0,0,4,4,0,0.003,9,-8,1,0,0,0,29,29,83,1,,,,,,,,,,,,,,,,,,,,,
,,,,,,,,,,,,,,,,,,,,,,,,,,,,,,,,,,,,,,,,,,,5e3f0bbe9907e915e0179f44,5ff3a3f40a5e7fa057a9baed,2021-01-04_23h26.07.443,Colour_Similarity_Experiment_v1,2020.1.2,MacIntel,60,5ff3a352adaa099f7659f8cc,,,,,,,,,,,,,,,,,,,,FF,,,,,,,,7,1.286,,,,,,,,,,,,,,,,,,,,,,,,,,,,8,40,63,1,0,0,response1disk,5,31,18,-2,1,0,0,rectangle,18,-2,1,0,0,4,1,0,0.002,18,-2,1,0,0,0,30,30,152,1,,,,,,,,,,,,,,,,,,,,,
,,,,,,,,,,,,,,,,,,,,,,,,,,,,,,,,,,,,,,,,,,,5e3f0bbe9907e915e0179f44,5ff3a3f40a5e7fa057a9baed,2021-01-04_23h26.07.443,Colour_Similarity_Experiment_v1,2020.1.2,MacIntel,60,5ff3a352adaa099f7659f8cc,,,,,,,,,,,,,,,,,,,,PF,,,,,,,,7,1.503,,,,,,,,,,,,,,,,,,,,,,,,,,,,8,55,87,1,0,0,response1disk,3,32,-2,-13,1,0,0,rectangle,-2,-13,1,0,0,4,7,0,0.002,-2,-13,1,0,0,0,31,31,71,1,,,,,,,,,,,,,,,,,,,,,
,,,,,,,,,,,,,,,,,,,,,,,,,,,,,,,,,,,,,,,,,,,5e3f0bbe9907e915e0179f44,5ff3a3f40a5e7fa057a9baed,2021-01-04_23h26.07.443,Colour_Similarity_Experiment_v1,2020.1.2,MacIntel,60,5ff3a352adaa099f7659f8cc,,,,,,,,,,,,,,,,,,,,PF,,,,,,,,7,1.57,,,,,,,,,,,,,,,,,,,,,,,,,,,,7,28,82,1,0,0,response1disk,9,33,12,-3,1,0,0,rectangle,12,-3,1,0,0,4,6,0,0.003,12,-3,1,0,0,0,32,32,10,1,,,,,,,,,,,,,,,,,,,,,
,,,,,,,,,,,,,,,,,,,,,,,,,,,,,,,,,,,,,,,,,,,5e3f0bbe9907e915e0179f44,5ff3a3f40a5e7fa057a9baed,2021-01-04_23h26.07.443,Colour_Similarity_Experiment_v1,2020.1.2,MacIntel,60,5ff3a352adaa099f7659f8cc,,,,,,,,,,,,,,,,,,,,FF,,,,,,,,3,2.141,,,,,,,,,,,,,,,,,,,,,,,,,,,,5,-27,-78,1,0,0,response5disk,3,34,17,-6,1,0,0,rectangle,17,-6,1,0,0,4,1,0,0.002,17,-6,1,0,0,0,33,33,25,1,,,,,,,,,,,,,,,,,,,,,
,,,,,,,,,,,,,,,,,,,,,,,,,,,,,,,,,,,,,,,,,,,5e3f0bbe9907e915e0179f44,5ff3a3f40a5e7fa057a9baed,2021-01-04_23h26.07.443,Colour_Similarity_Experiment_v1,2020.1.2,MacIntel,60,5ff3a352adaa099f7659f8cc,,,,,,,,,,,,,,,,,,,,FF,,,,,,,,7,0.985,,,,,,,,,,,,,,,,,,,,,,,,,,,,8,28,72,1,0,0,response1disk,3,35,22,2,1,0,0,rectangle,22,2,1,0,0,4,4,0,0.002,22,2,1,0,0,0,34,34,154,1,,,,,,,,,,,,,,,,,,,,,
,,,,,,,,,,,,,,,,,,,,,,,,,,,,,,,,,,,,,,,,,,,5e3f0bbe9907e915e0179f44,5ff3a3f40a5e7fa057a9baed,2021-01-04_23h26.07.443,Colour_Similarity_Experiment_v1,2020.1.2,MacIntel,60,5ff3a352adaa099f7659f8cc,,,,,,,,,,,,,,,,,,,,PF,,,,,,,,0,1.705,,,,,,,,,,,,,,,,,,,,,,,,,,,,5,-49,89,1,0,0,response7disk,5,36,2,-1,1,0,0,rectangle,2,-1,1,0,0,4,1,0,0.003,2,-1,1,0,0,0,35,35,94,1,,,,,,,,,,,,,,,,,,,,,
,,,,,,,,,,,,,,,,,,,,,,,,,,,,,,,,,,,,,,,,,,,5e3f0bbe9907e915e0179f44,5ff3a3f40a5e7fa057a9baed,2021-01-04_23h26.07.443,Colour_Similarity_Experiment_v1,2020.1.2,MacIntel,60,5ff3a352adaa099f7659f8cc,,,,,,,,,,,,,,,,,,,,PF,,,,,,,,7,0.954,,,,,,,,,,,,,,,,,,,,,,,,,,,,4,61,81,1,0,0,response1disk,9,37,22,1,1,0,0,rectangle,22,1,1,0,0,4,0,0,0.002,22,1,1,0,0,0,36,36,75,1,,,,,,,,,,,,,,,,,,,,,
,,,,,,,,,,,,,,,,,,,,,,,,,,,,,,,,,,,,,,,,,,,5e3f0bbe9907e915e0179f44,5ff3a3f40a5e7fa057a9baed,2021-01-04_23h26.07.443,Colour_Similarity_Experiment_v1,2020.1.2,MacIntel,60,5ff3a352adaa099f7659f8cc,,,,,,,,,,,,,,,,,,,,FF,,,,,,,,4,2.406,,,,,,,,,,,,,,,,,,,,,,,,,,,,4,25,-80,1,0,0,response3disk,5,38,2,-1,1,0,0,rectangle,2,-1,1,0,0,4,6,0,0.002,2,-1,1,0,0,0,37,37,116,1,,,,,,,,,,,,,,,,,,,,,
,,,,,,,,,,,,,,,,,,,,,,,,,,,,,,,,,,,,,,,,,,,5e3f0bbe9907e915e0179f44,5ff3a3f40a5e7fa057a9baed,2021-01-04_23h26.07.443,Colour_Similarity_Experiment_v1,2020.1.2,MacIntel,60,5ff3a352adaa099f7659f8cc,,,,,,,,,,,,,,,,,,,,FF,,,,,,,,0,1.036,,,,,,,,,,,,,,,,,,,,,,,,,,,,7,-42,79,1,0,0,response7disk,7,39,-6,1,1,0,0,rectangle,-6,1,1,0,0,4,3,0,0.002,-6,1,1,0,0,0,38,38,34,1,,,,,,,,,,,,,,,,,,,,,
,,,,,,,,,,,,,,,,,,,,,,,,,,,,,,,,,,,,,,,,,,,5e3f0bbe9907e915e0179f44,5ff3a3f40a5e7fa057a9baed,2021-01-04_23h26.07.443,Colour_Similarity_Experiment_v1,2020.1.2,MacIntel,60,5ff3a352adaa099f7659f8cc,,,,,,,,,,,,,,,,,,,,PF,,,,,,,,7,1.12,,,,,,,,,,,,,,,,,,,,,,,,,,,,8,58,78,1,0,0,response1disk,6,40,25,3,1,0,0,rectangle,-41,74,1,0,0,0,0,1,1.619,4,-2,1,0,0,0,39,39,161,1,response7disk_3,rectangle,,,,,,,,,,,,,,,,,,,
,,,,,,,,,,,,,,,,,,,,,,,,,,,,,,,,,,,,,,,,,,,5e3f0bbe9907e915e0179f44,5ff3a3f40a5e7fa057a9baed,2021-01-04_23h26.07.443,Colour_Similarity_Experiment_v1,2020.1.2,MacIntel,60,5ff3a352adaa099f7659f8cc,,,,,,,,,,,,,,,,,,,,FF,,,,,,,,7,0.95,,,,,,,,,,,,,,,,,,,,,,,,,,,,1,34,65,1,0,0,response1disk,4,41,4,-4,1,0,0,rectangle,4,-4,1,0,0,0,5,0,0.002,4,-4,1,0,0,0,40,40,135,1,,,,,,,,,,,,,,,,,,,,,
,,,,,,,,,,,,,,,,,,,,,,,,,,,,,,,,,,,,,,,,,,,5e3f0bbe9907e915e0179f44,5ff3a3f40a5e7fa057a9baed,2021-01-04_23h26.07.443,Colour_Similarity_Experiment_v1,2020.1.2,MacIntel,60,5ff3a352adaa099f7659f8cc,,,,,,,,,,,,,,,,,,,,PF,,,,,,,,7,1.337,,,,,,,,,,,,,,,,,,,,,,,,,,,,3,31,73,1,0,0,response1disk,7,42,9,2,1,0,0,rectangle,9,2,1,0,0,0,3,0,0.002,9,2,1,0,0,0,41,41,41,1,,,,,,,,,,,,,,,,,,,,,
,,,,,,,,,,,,,,,,,,,,,,,,,,,,,,,,,,,,,,,,,,,5e3f0bbe9907e915e0179f44,5ff3a3f40a5e7fa057a9baed,2021-01-04_23h26.07.443,Colour_Similarity_Experiment_v1,2020.1.2,MacIntel,60,5ff3a352adaa099f7659f8cc,,,,,,,,,,,,,,,,,,,,FF,,,,,,,,7,0.892,,,,,,,,,,,,,,,,,,,,,,,,,,,,7,44,69,1,0,0,response1disk,1,43,23,6,1,0,0,rectangle,23,6,1,0,0,0,1,0,0.002,23,6,1,0,0,0,42,42,132,1,,,,,,,,,,,,,,,,,,,,,
,,,,,,,,,,,,,,,,,,,,,,,,,,,,,,,,,,,,,,,,,,,5e3f0bbe9907e915e0179f44,5ff3a3f40a5e7fa057a9baed,2021-01-04_23h26.07.443,Colour_Similarity_Experiment_v1,2020.1.2,MacIntel,60,5ff3a352adaa099f7659f8cc,,,,,,,,,,,,,,,,,,,,PF,,,,,,,,7,0.954,,,,,,,,,,,,,,,,,,,,,,,,,,,,8,50,68,1,0,0,response1disk,4,44,7,0,1,0,0,rectangle,7,0,1,0,0,0,3,0,0.002,7,0,1,0,0,0,43,43,78,1,,,,,,,,,,,,,,,,,,,,,
,,,,,,,,,,,,,,,,,,,,,,,,,,,,,,,,,,,,,,,,,,,5e3f0bbe9907e915e0179f44,5ff3a3f40a5e7fa057a9baed,2021-01-04_23h26.07.443,Colour_Similarity_Experiment_v1,2020.1.2,MacIntel,60,5ff3a352adaa099f7659f8cc,,,,,,,,,,,,,,,,,,,,FF,,,,,,,,3,1.988,,,,,,,,,,,,,,,,,,,,,,,,,,,,5,-32,-72,1,0,0,response5disk,4,45,-1,4,1,0,0,rectangle,-1,4,1,0,0,0,0,0,0.002,-1,4,1,0,0,0,44,44,8,1,,,,,,,,,,,,,,,,,,,,,
,,,,,,,,,,,,,,,,,,,,,,,,,,,,,,,,,,,,,,,,,,,5e3f0bbe9907e915e0179f44,5ff3a3f40a5e7fa057a9baed,2021-01-04_23h26.07.443,Colour_Similarity_Experiment_v1,2020.1.2,MacIntel,60,5ff3a352adaa099f7659f8cc,,,,,,,,,,,,,,,,,,,,FF,,,,,,,,6,1.235,,,,,,,,,,,,,,,,,,,,,,,,,,,,5,91,76,1,0,0,response1disk,8,46,12,-3,1,0,0,rectangle,12,-3,1,0,0,0,5,0,0.003,12,-3,1,0,0,0,45,45,16,1,,,,,,,,,,,,,,,,,,,,,
,,,,,,,,,,,,,,,,,,,,,,,,,,,,,,,,,,,,,,,,,,,5e3f0bbe9907e915e0179f44,5ff3a3f40a5e7fa057a9baed,2021-01-04_23h26.07.443,Colour_Similarity_Experiment_v1,2020.1.2,MacIntel,60,5ff3a352adaa099f7659f8cc,,,,,,,,,,,,,,,,,,,,PF,,,,,,,,7,0.903,,,,,,,,,,,,,,,,,,,,,,,,,,,,1,51,77,1,0,0,response1disk,6,47,5,-4,1,0,0,rectangle,5,-4,1,0,0,0,1,0,0.002,5,-4,1,0,0,0,46,46,144,1,,,,,,,,,,,,,,,,,,,,,
,,,,,,,,,,,,,,,,,,,,,,,,,,,,,,,,,,,,,,,,,,,5e3f0bbe9907e915e0179f44,5ff3a3f40a5e7fa057a9baed,2021-01-04_23h26.07.443,Colour_Similarity_Experiment_v1,2020.1.2,MacIntel,60,5ff3a352adaa099f7659f8cc,,,,,,,,,,,,,,,,,,,,FF,,,,,,,,7,0.886,,,,,,,,,,,,,,,,,,,,,,,,,,,,5,47,76,1,0,0,response1disk,1,48,-9,10,1,0,0,rectangle,-9,10,1,0,0,0,0,0,0.002,-9,10,1,0,0,0,47,47,131,1,,,,,,,,,,,,,,,,,,,,,
,,,,,,,,,,,,,,,,,,,,,,,,,,,,,,,,,,,,,,,,,,,5e3f0bbe9907e915e0179f44,5ff3a3f40a5e7fa057a9baed,2021-01-04_23h26.07.443,Colour_Similarity_Experiment_v1,2020.1.2,MacIntel,60,5ff3a352adaa099f7659f8cc,,,,,,,,,,,,,,,,,,,,FF,,,,,,,,7,0.818,,,,,,,,,,,,,,,,,,,,,,,,,,,,7,30,76,1,0,0,response1disk,9,49,-1,13,1,0,0,rectangle,-1,13,1,0,0,0,1,0,0.001,-1,13,1,0,0,0,48,48,155,1,,,,,,,,,,,,,,,,,,,,,
,,,,,,,,,,,,,,,,,,,,,,,,,,,,,,,,,,,,,,,,,,,5e3f0bbe9907e915e0179f44,5ff3a3f40a5e7fa057a9baed,2021-01-04_23h26.07.443,Colour_Similarity_Experiment_v1,2020.1.2,MacIntel,60,5ff3a352adaa099f7659f8cc,,,,,,,,,,,,,,,,,,,,FF,,,,,,,,6,1.204,,,,,,,,,,,,,,,,,,,,,,,,,,,,2,89,44,1,0,0,response1disk,4,50,20,3,1,0,0,rectangle,20,3,1,0,0,0,2,0,0.001,20,3,1,0,0,0,49,49,145,1,,,,,,,,,,,,,,,,,,,,,
,,,,,,,,,,,,,,,,,,,,,,,,,,,,,,,,,,,,,,,,,,,5e3f0bbe9907e915e0179f44,5ff3a3f40a5e7fa057a9baed,2021-01-04_23h26.07.443,Colour_Similarity_Experiment_v1,2020.1.2,MacIntel,60,5ff3a352adaa099f7659f8cc,,,,,,,,,,,,,,,,,,,,FF,,,,,,,,7,5.662,,,,,,,,,,,,,,,,,,,,,,,,,,,,3,39,87,1,0,0,response1disk,8,51,6,1,1,0,0,rectangle,6,1,1,0,0,0,1,0,0.003,6,1,1,0,0,0,50,50,44,1,,,,,,,,,,,,,,,,,,,,,
,,,,,,,,,,,,,,,,,,,,,,,,,,,,,,,,,,,,,,,,,,,5e3f0bbe9907e915e0179f44,5ff3a3f40a5e7fa057a9baed,2021-01-04_23h26.07.443,Colour_Similarity_Experiment_v1,2020.1.2,MacIntel,60,5ff3a352adaa099f7659f8cc,,,,,,,,,,,,,,,,,,,,FF,,,,,,,,7,1.319,,,,,,,,,,,,,,,,,,,,,,,,,,,,7,48,79,1,0,0,response1disk,4,52,-5,3,1,0,0,rectangle,-5,3,1,0,0,0,7,0,0.003,-5,3,1,0,0,0,51,51,158,1,,,,,,,,,,,,,,,,,,,,,
,,,,,,,,,,,,,,,,,,,,,,,,,,,,,,,,,,,,,,,,,,,5e3f0bbe9907e915e0179f44,5ff3a3f40a5e7fa057a9baed,2021-01-04_23h26.07.443,Colour_Similarity_Experiment_v1,2020.1.2,MacIntel,60,5ff3a352adaa099f7659f8cc,,,,,,,,,,,,,,,,,,,,FF,,,,,,,,5,2.318,,,,,,,,,,,,,,,,,,,,,,,,,,,,9,73,-38,1,0,0,response3disk,1,53,-6,0,1,0,0,rectangle,-6,0,1,0,0,0,0,0,0.004,-6,0,1,0,0,0,52,52,111,1,,,,,,,,,,,,,,,,,,,,,
,,,,,,,,,,,,,,,,,,,,,,,,,,,,,,,,,,,,,,,,,,,5e3f0bbe9907e915e0179f44,5ff3a3f40a5e7fa057a9baed,2021-01-04_23h26.07.443,Colour_Similarity_Experiment_v1,2020.1.2,MacIntel,60,5ff3a352adaa099f7659f8cc,,,,,,,,,,,,,,,,,,,,FF,,,,,,,,7,0.952,,,,,,,,,,,,,,,,,,,,,,,,,,,,2,45,77,1,0,0,response1disk,9,54,2,8,1,0,0,rectangle,2,8,1,0,0,0,7,0,0.002,2,8,1,0,0,0,53,53,72,1,,,,,,,,,,,,,,,,,,,,,
,,,,,,,,,,,,,,,,,,,,,,,,,,,,,,,,,,,,,,,,,,,5e3f0bbe9907e915e0179f44,5ff3a3f40a5e7fa057a9baed,2021-01-04_23h26.07.443,Colour_Similarity_Experiment_v1,2020.1.2,MacIntel,60,5ff3a352adaa099f7659f8cc,,,,,,,,,,,,,,,,,,,,PF,,,,,,,,3,1.888,,,,,,,,,,,,,,,,,,,,,,,,,,,,6,-32,-81,1,0,0,response5disk,7,55,-1,0,1,0,0,rectangle,-1,0,1,0,0,0,4,0,0.002,-1,0,1,0,0,0,54,54,50,1,,,,,,,,,,,,,,,,,,,,,
,,,,,,,,,,,,,,,,,,,,,,,,,,,,,,,,,,,,,,,,,,,5e3f0bbe9907e915e0179f44,5ff3a3f40a5e7fa057a9baed,2021-01-04_23h26.07.443,Colour_Similarity_Experiment_v1,2020.1.2,MacIntel,60,5ff3a352adaa099f7659f8cc,,,,,,,,,,,,,,,,,,,,FF,,,,,,,,0,1.253,,,,,,,,,,,,,,,,,,,,,,,,,,,,3,-28,67,1,0,0,response7disk,3,56,-6,-11,1,0,0,rectangle,-6,-11,1,0,0,0,6,0,0.003,-6,-11,1,0,0,0,55,55,68,1,,,,,,,,,,,,,,,,,,,,,
,,,,,,,,,,,,,,,,,,,,,,,,,,,,,,,,,,,,,,,,,,,5e3f0bbe9907e915e0179f44,5ff3a3f40a5e7fa057a9baed,2021-01-04_23h26.07.443,Colour_Similarity_Experiment_v1,2020.1.2,MacIntel,60,5ff3a352adaa099f7659f8cc,,,,,,,,,,,,,,,,,,,,PF,,,,,,,,5,2.889,,,,,,,,,,,,,,,,,,,,,,,,,,,,3,99,-49,1,0,0,response3disk,5,57,18,-9,1,0,0,rectangle,18,-9,1,0,0,0,1,0,0.002,18,-9,1,0,0,0,56,56,66,1,,,,,,,,,,,,,,,,,,,,,
,,,,,,,,,,,,,,,,,,,,,,,,,,,,,,,,,,,,,,,,,,,5e3f0bbe9907e915e0179f44,5ff3a3f40a5e7fa057a9baed,2021-01-04_23h26.07.443,Colour_Similarity_Experiment_v1,2020.1.2,MacIntel,60,5ff3a352adaa099f7659f8cc,,,,,,,,,,,,,,,,,,,,FF,,,,,,,,0,1.374,,,,,,,,,,,,,,,,,,,,,,,,,,,,6,-59,70,1,0,0,response7disk,6,58,-21,11,1,0,0,rectangle,-21,11,1,0,0,0,7,0,0.005,-21,11,1,0,0,0,57,57,91,1,,,,,,,,,,,,,,,,,,,,,
,,,,,,,,,,,,,,,,,,,,,,,,,,,,,,,,,,,,,,,,,,,5e3f0bbe9907e915e0179f44,5ff3a3f40a5e7fa057a9baed,2021-01-04_23h26.07.443,Colour_Similarity_Experiment_v1,2020.1.2,MacIntel,60,5ff3a352adaa099f7659f8cc,,,,,,,,,,,,,,,,,,,,PF,,,,,,,,3,1.311,,,,,,,,,,,,,,,,,,,,,,,,,,,,6,-35,-54,1,0,0,response5disk,5,59,-9,-3,1,0,0,rectangle,-9,-3,1,0,0,0,1,0,0.004,-9,-3,1,0,0,0,58,58,59,1,,,,,,,,,,,,,,,,,,,,,
,,,,,,,,,,,,,,,,,,,,,,,,,,,,,,,,,,,,,,,,,,,5e3f0bbe9907e915e0179f44,5ff3a3f40a5e7fa057a9baed,2021-01-04_23h26.07.443,Colour_Similarity_Experiment_v1,2020.1.2,MacIntel,60,5ff3a352adaa099f7659f8cc,,,,,,,,,,,,,,,,,,,,PF,,,,,,,,6,1.504,,,,,,,,,,,,,,,,,,,,,,,,,,,,3,81,65,1,0,0,response1disk,9,60,16,9,1,0,0,rectangle,16,9,1,0,0,0,4,0,0.002,16,9,1,0,0,0,59,59,79,1,,,,,,,,,,,,,,,,,,,,,
,,,,,,,,,,,,,,,,,,,,,,,,,,,,,,,,,,,,,,,,,,,5e3f0bbe9907e915e0179f44,5ff3a3f40a5e7fa057a9baed,2021-01-04_23h26.07.443,Colour_Similarity_Experiment_v1,2020.1.2,MacIntel,60,5ff3a352adaa099f7659f8cc,,,,,,,,,,,,,,,,,,,,PF,,,,,,,,7,0.852,,,,,,,,,,,,,,,,,,,,,,,,,,,,6,36,66,1,0,0,response1disk,1,61,1,-7,1,0,0,rectangle,1,-7,1,0,0,0,3,0,0.002,1,-7,1,0,0,0,60,60,46,1,,,,,,,,,,,,,,,,,,,,,
,,,,,,,,,,,,,,,,,,,,,,,,,,,,,,,,,,,,,,,,,,,5e3f0bbe9907e915e0179f44,5ff3a3f40a5e7fa057a9baed,2021-01-04_23h26.07.443,Colour_Similarity_Experiment_v1,2020.1.2,MacIntel,60,5ff3a352adaa099f7659f8cc,,,,,,,,,,,,,,,,,,,,PF,,,,,,,,7,0.802,,,,,,,,,,,,,,,,,,,,,,,,,,,,7,25,52,1,0,0,response1disk,4,62,-1,1,1,0,0,rectangle,-1,1,1,0,0,0,5,0,0.003,-1,1,1,0,0,0,61,61,43,1,,,,,,,,,,,,,,,,,,,,,
,,,,,,,,,,,,,,,,,,,,,,,,,,,,,,,,,,,,,,,,,,,5e3f0bbe9907e915e0179f44,5ff3a3f40a5e7fa057a9baed,2021-01-04_23h26.07.443,Colour_Similarity_Experiment_v1,2020.1.2,MacIntel,60,5ff3a352adaa099f7659f8cc,,,,,,,,,,,,,,,,,,,,FF,,,,,,,,3,2.74,,,,,,,,,,,,,,,,,,,,,,,,,,,,8,-26,-88,1,0,0,response5disk,9,63,8,-6,1,0,0,rectangle,8,-6,1,0,0,0,0,0,0.001,8,-6,1,0,0,0,62,62,105,1,,,,,,,,,,,,,,,,,,,,,
,,,,,,,,,,,,,,,,,,,,,,,,,,,,,,,,,,,,,,,,,,,5e3f0bbe9907e915e0179f44,5ff3a3f40a5e7fa057a9baed,2021-01-04_23h26.07.443,Colour_Similarity_Experiment_v1,2020.1.2,MacIntel,60,5ff3a352adaa099f7659f8cc,,,,,,,,,,,,,,,,,,,,FF,,,,,,,,7,0.969,,,,,,,,,,,,,,,,,,,,,,,,,,,,6,42,59,1,0,0,response1disk,4,64,-1,-12,1,0,0,rectangle,-1,-12,1,0,0,0,4,0,0.002,-1,-12,1,0,0,0,63,63,56,1,,,,,,,,,,,,,,,,,,,,,
,,,,,,,,,,,,,,,,,,,,,,,,,,,,,,,,,,,,,,,,,,,5e3f0bbe9907e915e0179f44,5ff3a3f40a5e7fa057a9baed,2021-01-04_23h26.07.443,Colour_Similarity_Experiment_v1,2020.1.2,MacIntel,60,5ff3a352adaa099f7659f8cc,,,,,,,,,,,,,,,,,,,,FF,,,,,,,,7,0.789,,,,,,,,,,,,,,,,,,,,,,,,,,,,5,32,49,1,0,0,response1disk,7,65,11,5,1,0,0,rectangle,11,5,1,0,0,0,3,0,0.002,11,5,1,0,0,0,64,64,7,1,,,,,,,,,,,,,,,,,,,,,
,,,,,,,,,,,,,,,,,,,,,,,,,,,,,,,,,,,,,,,,,,,5e3f0bbe9907e915e0179f44,5ff3a3f40a5e7fa057a9baed,2021-01-04_23h26.07.443,Colour_Similarity_Experiment_v1,2020.1.2,MacIntel,60,5ff3a352adaa099f7659f8cc,,,,,,,,,,,,,,,,,,,,PF,,,,,,,,7,0.77,,,,,,,,,,,,,,,,,,,,,,,,,,,,7,43,73,1,0,0,response1disk,1,66,16,-4,1,0,0,rectangle,16,-4,1,0,0,0,3,0,0.002,16,-4,1,0,0,0,65,65,53,1,,,,,,,,,,,,,,,,,,,,,
,,,,,,,,,,,,,,,,,,,,,,,,,,,,,,,,,,,,,,,,,,,5e3f0bbe9907e915e0179f44,5ff3a3f40a5e7fa057a9baed,2021-01-04_23h26.07.443,Colour_Similarity_Experiment_v1,2020.1.2,MacIntel,60,5ff3a352adaa099f7659f8cc,,,,,,,,,,,,,,,,,,,,FF,,,,,,,,7,0.919,,,,,,,,,,,,,,,,,,,,,,,,,,,,8,28,61,1,0,0,response1disk,2,67,10,-6,1,0,0,rectangle,10,-6,1,0,0,0,1,0,0.002,10,-6,1,0,0,0,66,66,22,1,,,,,,,,,,,,,,,,,,,,,
,,,,,,,,,,,,,,,,,,,,,,,,,,,,,,,,,,,,,,,,,,,5e3f0bbe9907e915e0179f44,5ff3a3f40a5e7fa057a9baed,2021-01-04_23h26.07.443,Colour_Similarity_Experiment_v1,2020.1.2,MacIntel,60,5ff3a352adaa099f7659f8cc,,,,,,,,,,,,,,,,,,,,PF,,,,,,,,7,1.855,,,,,,,,,,,,,,,,,,,,,,,,,,,,5,51,90,1,0,0,response1disk,2,68,6,0,1,0,0,rectangle,6,0,1,0,0,0,0,0,0.003,6,0,1,0,0,0,67,67,129,1,,,,,,,,,,,,,,,,,,,,,
,,,,,,,,,,,,,,,,,,,,,,,,,,,,,,,,,,,,,,,,,,,5e3f0bbe9907e915e0179f44,5ff3a3f40a5e7fa057a9baed,2021-01-04_23h26.07.443,Colour_Similarity_Experiment_v1,2020.1.2,MacIntel,60,5ff3a352adaa099f7659f8cc,,,,,,,,,,,,,,,,,,,,PF,,,,,,,,6,1.303,,,,,,,,,,,,,,,,,,,,,,,,,,,,1,98,46,1,0,0,response1disk,2,69,3,-12,1,0,0,rectangle,3,-12,1,0,0,0,5,0,0.001,3,-12,1,0,0,0,68,68,24,1,,,,,,,,,,,,,,,,,,,,,
,,,,,,,,,,,,,,,,,,,,,,,,,,,,,,,,,,,,,,,,,,,5e3f0bbe9907e915e0179f44,5ff3a3f40a5e7fa057a9baed,2021-01-04_23h26.07.443,Colour_Similarity_Experiment_v1,2020.1.2,MacIntel,60,5ff3a352adaa099f7659f8cc,,,,,,,,,,,,,,,,,,,,PF,,,,,,,,3,1.702,,,,,,,,,,,,,,,,,,,,,,,,,,,,7,-41,-73,1,0,0,response5disk,6,70,11,-2,1,0,0,rectangle,11,-2,1,0,0,0,4,0,0.003,11,-2,1,0,0,0,69,69,29,1,,,,,,,,,,,,,,,,,,,,,
,,,,,,,,,,,,,,,,,,,,,,,,,,,,,,,,,,,,,,,,,,,5e3f0bbe9907e915e0179f44,5ff3a3f40a5e7fa057a9baed,2021-01-04_23h26.07.443,Colour_Similarity_Experiment_v1,2020.1.2,MacIntel,60,5ff3a352adaa099f7659f8cc,,,,,,,,,,,,,,,,,,,,PF,,,,,,,,4,1.42,,,,,,,,,,,,,,,,,,,,,,,,,,,,1,28,-49,1,0,0,response3disk,9,71,7,-4,1,0,0,rectangle,7,-4,1,0,0,0,4,0,0.001,7,-4,1,0,0,0,70,70,15,1,,,,,,,,,,,,,,,,,,,,,
,,,,,,,,,,,,,,,,,,,,,,,,,,,,,,,,,,,,,,,,,,,5e3f0bbe9907e915e0179f44,5ff3a3f40a5e7fa057a9baed,2021-01-04_23h26.07.443,Colour_Similarity_Experiment_v1,2020.1.2,MacIntel,60,5ff3a352adaa099f7659f8cc,,,,,,,,,,,,,,,,,,,,PF,,,,,,,,5,1.87,,,,,,,,,,,,,,,,,,,,,,,,,,,,1,88,-38,1,0,0,response3disk,8,72,18,-1,1,0,0,rectangle,18,-1,1,0,0,0,6,0,0.002,18,-1,1,0,0,0,71,71,65,1,,,,,,,,,,,,,,,,,,,,,
,,,,,,,,,,,,,,,,,,,,,,,,,,,,,,,,,,,,,,,,,,,5e3f0bbe9907e915e0179f44,5ff3a3f40a5e7fa057a9baed,2021-01-04_23h26.07.443,Colour_Similarity_Experiment_v1,2020.1.2,MacIntel,60,5ff3a352adaa099f7659f8cc,,,,,,,,,,,,,,,,,,,,PF,,,,,,,,7,1.372,,,,,,,,,,,,,,,,,,,,,,,,,,,,4,31,45,1,0,0,response1disk,7,73,13,8,1,0,0,rectangle,13,8,1,0,0,0,6,0,0.002,13,8,1,0,0,0,72,72,38,1,,,,,,,,,,,,,,,,,,,,,
,,,,,,,,,,,,,,,,,,,,,,,,,,,,,,,,,,,,,,,,,,,5e3f0bbe9907e915e0179f44,5ff3a3f40a5e7fa057a9baed,2021-01-04_23h26.07.443,Colour_Similarity_Experiment_v1,2020.1.2,MacIntel,60,5ff3a352adaa099f7659f8cc,,,,,,,,,,,,,,,,,,,,FF,,,,,,,,5,1.685,,,,,,,,,,,,,,,,,,,,,,,,,,,,2,75,-34,1,0,0,response3disk,3,74,4,-4,1,0,0,rectangle,29,79,1,0,0,7,7,1,1.904,-1,2,1,0,0,0,73,73,104,1,response1disk_3,rectangle,,,,,,,,,,,,,,,,,,,
,,,,,,,,,,,,,,,,,,,,,,,,,,,,,,,,,,,,,,,,,,,5e3f0bbe9907e915e0179f44,5ff3a3f40a5e7fa057a9baed,2021-01-04_23h26.07.443,Colour_Similarity_Experiment_v1,2020.1.2,MacIntel,60,5ff3a352adaa099f7659f8cc,,,,,,,,,,,,,,,,,,,,FF,,,,,,,,1,1.371,,,,,,,,,,,,,,,,,,,,,,,,,,,,4,-67,25,1,0,0,response7disk,3,75,-17,-14,1,0,0,rectangle,-17,-14,1,0,0,7,2,0,0.001,-17,-14,1,0,0,0,74,74,77,1,,,,,,,,,,,,,,,,,,,,,
,,,,,,,,,,,,,,,,,,,,,,,,,,,,,,,,,,,,,,,,,,,5e3f0bbe9907e915e0179f44,5ff3a3f40a5e7fa057a9baed,2021-01-04_23h26.07.443,Colour_Similarity_Experiment_v1,2020.1.2,MacIntel,60,5ff3a352adaa099f7659f8cc,,,,,,,,,,,,,,,,,,,,FF,,,,,,,,7,1.854,,,,,,,,,,,,,,,,,,,,,,,,,,,,3,34,76,1,0,0,response1disk,7,76,4,-9,1,0,0,rectangle,4,-9,1,0,0,7,0,0,0.002,4,-9,1,0,0,0,75,75,118,1,,,,,,,,,,,,,,,,,,,,,
,,,,,,,,,,,,,,,,,,,,,,,,,,,,,,,,,,,,,,,,,,,5e3f0bbe9907e915e0179f44,5ff3a3f40a5e7fa057a9baed,2021-01-04_23h26.07.443,Colour_Similarity_Experiment_v1,2020.1.2,MacIntel,60,5ff3a352adaa099f7659f8cc,,,,,,,,,,,,,,,,,,,,PF,,,,,,,,7,0.938,,,,,,,,,,,,,,,,,,,,,,,,,,,,4,47,79,1,0,0,response1disk,1,77,-9,-2,1,0,0,rectangle,-9,-2,1,0,0,7,3,0,0.002,-9,-2,1,0,0,0,76,76,115,1,,,,,,,,,,,,,,,,,,,,,
,,,,,,,,,,,,,,,,,,,,,,,,,,,,,,,,,,,,,,,,,,,5e3f0bbe9907e915e0179f44,5ff3a3f40a5e7fa057a9baed,2021-01-04_23h26.07.443,Colour_Similarity_Experiment_v1,2020.1.2,MacIntel,60,5ff3a352adaa099f7659f8cc,,,,,,,,,,,,,,,,,,,,FF,,,,,,,,7,0.987,,,,,,,,,,,,,,,,,,,,,,,,,,,,2,20,52,1,0,0,response1disk,1,78,9,15,1,0,0,rectangle,9,15,1,0,0,7,7,0,0.002,9,15,1,0,0,0,77,77,85,1,,,,,,,,,,,,,,,,,,,,,
,,,,,,,,,,,,,,,,,,,,,,,,,,,,,,,,,,,,,,,,,,,5e3f0bbe9907e915e0179f44,5ff3a3f40a5e7fa057a9baed,2021-01-04_23h26.07.443,Colour_Similarity_Experiment_v1,2020.1.2,MacIntel,60,5ff3a352adaa099f7659f8cc,,,,,,,,,,,,,,,,,,,,PF,,,,,,,,7,1.035,,,,,,,,,,,,,,,,,,,,,,,,,,,,4,45,71,1,0,0,response1disk,2,79,6,12,1,0,0,rectangle,6,12,1,0,0,7,6,0,0.002,6,12,1,0,0,0,78,78,108,1,,,,,,,,,,,,,,,,,,,,,
,,,,,,,,,,,,,,,,,,,,,,,,,,,,,,,,,,,,,,,,,,,5e3f0bbe9907e915e0179f44,5ff3a3f40a5e7fa057a9baed,2021-01-04_23h26.07.443,Colour_Similarity_Experiment_v1,2020.1.2,MacIntel,60,5ff3a352adaa099f7659f8cc,,,,,,,,,,,,,,,,,,,,FF,,,,,,,,7,1.103,,,,,,,,,,,,,,,,,,,,,,,,,,,,6,28,65,1,0,0,response1disk,2,80,9,-4,1,0,0,rectangle,9,-4,1,0,0,7,0,0,0.004,9,-4,1,0,0,0,79,79,112,1,,,,,,,,,,,,,,,,,,,,,
,,,,,,,,,,,,,,,,,,,,,,,,,,,,,,,,,,,,,,,,,,,5e3f0bbe9907e915e0179f44,5ff3a3f40a5e7fa057a9baed,2021-01-04_23h26.07.443,Colour_Similarity_Experiment_v1,2020.1.2,MacIntel,60,5ff3a352adaa099f7659f8cc,,,,,,,,,,,,,,,,,,,,FF,,,,,,,,7,0.986,,,,,,,,,,,,,,,,,,,,,,,,,,,,9,50,80,1,0,0,response1disk,7,81,-2,-15,1,0,0,rectangle,-2,-15,1,0,0,7,0,0,0.003,-2,-15,1,0,0,0,80,80,100,1,,,,,,,,,,,,,,,,,,,,,
,,,,,,,,,,,,,,,,,,,,,,,,,,,,,,,,,,,,,,,,,,,5e3f0bbe9907e915e0179f44,5ff3a3f40a5e7fa057a9baed,2021-01-04_23h26.07.443,Colour_Similarity_Experiment_v1,2020.1.2,MacIntel,60,5ff3a352adaa099f7659f8cc,,,,,,,,,,,,,,,,,,,,PF,,,,,,,,7,0.952,,,,,,,,,,,,,,,,,,,,,,,,,,,,7,33,71,1,0,0,response1disk,2,82,-19,2,1,0,0,rectangle,-19,2,1,0,0,7,6,0,0.001,-19,2,1,0,0,0,81,81,32,1,,,,,,,,,,,,,,,,,,,,,
,,,,,,,,,,,,,,,,,,,,,,,,,,,,,,,,,,,,,,,,,,,5e3f0bbe9907e915e0179f44,5ff3a3f40a5e7fa057a9baed,2021-01-04_23h26.07.443,Colour_Similarity_Experiment_v1,2020.1.2,MacIntel,60,5ff3a352adaa099f7659f8cc,,,,,,,,,,,,,,,,,,,,PF,,,,,,,,7,0.942,,,,,,,,,,,,,,,,,,,,,,,,,,,,6,28,62,1,0,0,response1disk,9,83,9,12,1,0,0,rectangle,9,12,1,0,0,7,2,0,0.003,9,12,1,0,0,0,82,82,45,1,,,,,,,,,,,,,,,,,,,,,
,,,,,,,,,,,,,,,,,,,,,,,,,,,,,,,,,,,,,,,,,,,5e3f0bbe9907e915e0179f44,5ff3a3f40a5e7fa057a9baed,2021-01-04_23h26.07.443,Colour_Similarity_Experiment_v1,2020.1.2,MacIntel,60,5ff3a352adaa099f7659f8cc,,,,,,,,,,,,,,,,,,,,PF,,,,,,,,5,1.871,,,,,,,,,,,,,,,,,,,,,,,,,,,,2,74,-17,1,0,0,response3disk,3,84,7,-13,1,0,0,rectangle,7,-13,1,0,0,7,6,0,0.001,7,-13,1,0,0,0,83,83,69,1,,,,,,,,,,,,,,,,,,,,,
,,,,,,,,,,,,,,,,,,,,,,,,,,,,,,,,,,,,,,,,,,,5e3f0bbe9907e915e0179f44,5ff3a3f40a5e7fa057a9baed,2021-01-04_23h26.07.443,Colour_Similarity_Experiment_v1,2020.1.2,MacIntel,60,5ff3a352adaa099f7659f8cc,,,,,,,,,,,,,,,,,,,,PF,,,,,,,,0,1.188,,,,,,,,,,,,,,,,,,,,,,,,,,,,3,-48,78,1,0,0,response7disk,3,85,-11,5,1,0,0,rectangle,-11,5,1,0,0,7,3,0,0.001,-11,5,1,0,0,0,84,84,4,1,,,,,,,,,,,,,,,,,,,,,
,,,,,,,,,,,,,,,,,,,,,,,,,,,,,,,,,,,,,,,,,,,5e3f0bbe9907e915e0179f44,5ff3a3f40a5e7fa057a9baed,2021-01-04_23h26.07.443,Colour_Similarity_Experiment_v1,2020.1.2,MacIntel,60,5ff3a352adaa099f7659f8cc,,,,,,,,,,,,,,,,,,,,PF,,,,,,,,7,0.953,,,,,,,,,,,,,,,,,,,,,,,,,,,,4,42,69,1,0,0,response1disk,8,86,-9,-6,1,0,0,rectangle,-9,-6,1,0,0,7,1,0,0.001,-9,-6,1,0,0,0,85,85,124,1,,,,,,,,,,,,,,,,,,,,,
,,,,,,,,,,,,,,,,,,,,,,,,,,,,,,,,,,,,,,,,,,,5e3f0bbe9907e915e0179f44,5ff3a3f40a5e7fa057a9baed,2021-01-04_23h26.07.443,Colour_Similarity_Experiment_v1,2020.1.2,MacIntel,60,5ff3a352adaa099f7659f8cc,,,,,,,,,,,,,,,,,,,,PF,,,,,,,,1,3.307,,,,,,,,,,,,,,,,,,,,,,,,,,,,4,-77,40,1,0,0,response7disk,4,87,-6,1,1,0,0,rectangle,-6,1,1,0,0,7,2,0,0.002,-6,1,1,0,0,0,86,86,70,1,,,,,,,,,,,,,,,,,,,,,
,,,,,,,,,,,,,,,,,,,,,,,,,,,,,,,,,,,,,,,,,,,5e3f0bbe9907e915e0179f44,5ff3a3f40a5e7fa057a9baed,2021-01-04_23h26.07.443,Colour_Similarity_Experiment_v1,2020.1.2,MacIntel,60,5ff3a352adaa099f7659f8cc,,,,,,,,,,,,,,,,,,,,FF,,,,,,,,7,1.304,,,,,,,,,,,,,,,,,,,,,,,,,,,,1,38,68,1,0,0,response1disk,5,88,-6,-3,1,0,0,rectangle,-6,-3,1,0,0,7,6,0,0.002,-6,-3,1,0,0,0,87,87,82,1,,,,,,,,,,,,,,,,,,,,,
,,,,,,,,,,,,,,,,,,,,,,,,,,,,,,,,,,,,,,,,,,,5e3f0bbe9907e915e0179f44,5ff3a3f40a5e7fa057a9baed,2021-01-04_23h26.07.443,Colour_Similarity_Experiment_v1,2020.1.2,MacIntel,60,5ff3a352adaa099f7659f8cc,,,,,,,,,,,,,,,,,,,,FF,,,,,,,,7,1.103,,,,,,,,,,,,,,,,,,,,,,,,,,,,9,47,78,1,0,0,response1disk,2,89,11,10,1,0,0,rectangle,43,-82,1,0,0,4,4,1,2.673,3,-3,1,0,0,0,88,88,11,1,response3disk_3,rectangle,,,,,,,,,,,,,,,,,,,
,,,,,,,,,,,,,,,,,,,,,,,,,,,,,,,,,,,,,,,,,,,5e3f0bbe9907e915e0179f44,5ff3a3f40a5e7fa057a9baed,2021-01-04_23h26.07.443,Colour_Similarity_Experiment_v1,2020.1.2,MacIntel,60,5ff3a352adaa099f7659f8cc,,,,,,,,,,,,,,,,,,,,FF,,,,,,,,7,0.964,,,,,,,,,,,,,,,,,,,,,,,,,,,,2,40,80,1,0,0,response1disk,8,90,0,-11,1,0,0,rectangle,0,-11,1,0,0,4,7,0,0.002,0,-11,1,0,0,0,89,89,62,1,,,,,,,,,,,,,,,,,,,,,
,,,,,,,,,,,,,,,,,,,,,,,,,,,,,,,,,,,,,,,,,,,5e3f0bbe9907e915e0179f44,5ff3a3f40a5e7fa057a9baed,2021-01-04_23h26.07.443,Colour_Similarity_Experiment_v1,2020.1.2,MacIntel,60,5ff3a352adaa099f7659f8cc,,,,,,,,,,,,,,,,,,,,PF,,,,,,,,5,1.17,,,,,,,,,,,,,,,,,,,,,,,,,,,,9,98,-27,1,0,0,response3disk,1,91,7,4,1,0,0,rectangle,7,4,1,0,0,4,0,0,0.002,7,4,1,0,0,0,90,90,74,1,,,,,,,,,,,,,,,,,,,,,
,,,,,,,,,,,,,,,,,,,,,,,,,,,,,,,,,,,,,,,,,,,5e3f0bbe9907e915e0179f44,5ff3a3f40a5e7fa057a9baed,2021-01-04_23h26.07.443,Colour_Similarity_Experiment_v1,2020.1.2,MacIntel,60,5ff3a352adaa099f7659f8cc,,,,,,,,,,,,,,,,,,,,FF,,,,,,,,0,1.019,,,,,,,,,,,,,,,,,,,,,,,,,,,,8,-40,81,1,0,0,response7disk,8,92,-7,-9,1,0,0,rectangle,-7,-9,1,0,0,4,2,0,0.002,-7,-9,1,0,0,0,91,91,48,1,,,,,,,,,,,,,,,,,,,,,
,,,,,,,,,,,,,,,,,,,,,,,,,,,,,,,,,,,,,,,,,,,5e3f0bbe9907e915e0179f44,5ff3a3f40a5e7fa057a9baed,2021-01-04_23h26.07.443,Colour_Similarity_Experiment_v1,2020.1.2,MacIntel,60,5ff3a352adaa099f7659f8cc,,,,,,,,,,,,,,,,,,,,PF,,,,,,,,7,0.904,,,,,,,,,,,,,,,,,,,,,,,,,,,,9,41,83,1,0,0,response1disk,6,93,10,-8,1,0,0,rectangle,10,-8,1,0,0,4,7,0,0.003,10,-8,1,0,0,0,92,92,148,1,,,,,,,,,,,,,,,,,,,,,
,,,,,,,,,,,,,,,,,,,,,,,,,,,,,,,,,,,,,,,,,,,5e3f0bbe9907e915e0179f44,5ff3a3f40a5e7fa057a9baed,2021-01-04_23h26.07.443,Colour_Similarity_Experiment_v1,2020.1.2,MacIntel,60,5ff3a352adaa099f7659f8cc,,,,,,,,,,,,,,,,,,,,FF,,,,,,,,7,0.885,,,,,,,,,,,,,,,,,,,,,,,,,,,,6,38,61,1,0,0,response1disk,8,94,5,-13,1,0,0,rectangle,5,-13,1,0,0,4,0,0,0.001,5,-13,1,0,0,0,93,93,133,1,,,,,,,,,,,,,,,,,,,,,
,,,,,,,,,,,,,,,,,,,,,,,,,,,,,,,,,,,,,,,,,,,5e3f0bbe9907e915e0179f44,5ff3a3f40a5e7fa057a9baed,2021-01-04_23h26.07.443,Colour_Similarity_Experiment_v1,2020.1.2,MacIntel,60,5ff3a352adaa099f7659f8cc,,,,,,,,,,,,,,,,,,,,PF,,,,,,,,6,0.902,,,,,,,,,,,,,,,,,,,,,,,,,,,,8,72,23,1,0,0,response1disk,7,95,11,-3,1,0,0,rectangle,11,-3,1,0,0,4,1,0,0.003,11,-3,1,0,0,0,94,94,23,1,,,,,,,,,,,,,,,,,,,,,
,,,,,,,,,,,,,,,,,,,,,,,,,,,,,,,,,,,,,,,,,,,5e3f0bbe9907e915e0179f44,5ff3a3f40a5e7fa057a9baed,2021-01-04_23h26.07.443,Colour_Similarity_Experiment_v1,2020.1.2,MacIntel,60,5ff3a352adaa099f7659f8cc,,,,,,,,,,,,,,,,,,,,FF,,,,,,,,2,3.34,,,,,,,,,,,,,,,,,,,,,,,,,,,,7,-93,-40,1,0,0,response5disk,6,96,-3,1,1,0,0,rectangle,-3,1,1,0,0,4,0,0,0.002,-3,1,1,0,0,0,95,95,31,1,,,,,,,,,,,,,,,,,,,,,
,,,,,,,,,,,,,,,,,,,,,,,,,,,,,,,,,,,,,,,,,,,5e3f0bbe9907e915e0179f44,5ff3a3f40a5e7fa057a9baed,2021-01-04_23h26.07.443,Colour_Similarity_Experiment_v1,2020.1.2,MacIntel,60,5ff3a352adaa099f7659f8cc,,,,,,,,,,,,,,,,,,,,FF,,,,,,,,3,2.022,,,,,,,,,,,,,,,,,,,,,,,,,,,,1,-56,-95,1,0,0,response5disk,9,97,-3,-5,1,0,0,rectangle,-3,-5,1,0,0,4,1,0,0.002,-3,-5,1,0,0,0,96,96,123,1,,,,,,,,,,,,,,,,,,,,,
,,,,,,,,,,,,,,,,,,,,,,,,,,,,,,,,,,,,,,,,,,,5e3f0bbe9907e915e0179f44,5ff3a3f40a5e7fa057a9baed,2021-01-04_23h26.07.443,Colour_Similarity_Experiment_v1,2020.1.2,MacIntel,60,5ff3a352adaa099f7659f8cc,,,,,,,,,,,,,,,,,,,,PF,,,,,,,,0,1.069,,,,,,,,,,,,,,,,,,,,,,,,,,,,2,-28,69,1,0,0,response7disk,2,98,-16,3,1,0,0,rectangle,-16,3,1,0,0,4,0,0,0.003,-16,3,1,0,0,0,97,97,14,1,,,,,,,,,,,,,,,,,,,,,
,,,,,,,,,,,,,,,,,,,,,,,,,,,,,,,,,,,,,,,,,,,5e3f0bbe9907e915e0179f44,5ff3a3f40a5e7fa057a9baed,2021-01-04_23h26.07.443,Colour_Similarity_Experiment_v1,2020.1.2,MacIntel,60,5ff3a352adaa099f7659f8cc,,,,,,,,,,,,,,,,,,,,PF,,,,,,,,7,1.114,,,,,,,,,,,,,,,,,,,,,,,,,,,,9,66,84,1,0,0,response1disk,4,99,-24,-8,1,0,0,rectangle,-24,-8,1,0,0,4,5,0,0.002,-24,-8,1,0,0,0,98,98,114,1,,,,,,,,,,,,,,,,,,,,,
,,,,,,,,,,,,,,,,,,,,,,,,,,,,,,,,,,,,,,,,,,,5e3f0bbe9907e915e0179f44,5ff3a3f40a5e7fa057a9baed,2021-01-04_23h26.07.443,Colour_Similarity_Experiment_v1,2020.1.2,MacIntel,60,5ff3a352adaa099f7659f8cc,,,,,,,,,,,,,,,,,,,,PF,,,,,,,,7,1.036,,,,,,,,,,,,,,,,,,,,,,,,,,,,5,55,100,1,0,0,response1disk,9,100,0,-15,1,0,0,rectangle,91,28,1,0,0,6,6,1,2.222,9,-16,1,0,0,0,99,99,136,1,response1disk_3,rectangle,,,,,,,,,,,,,,,,,,,
,,,,,,,,,,,,,,,,,,,,,,,,,,,,,,,,,,,,,,,,,,,5e3f0bbe9907e915e0179f44,5ff3a3f40a5e7fa057a9baed,2021-01-04_23h26.07.443,Colour_Similarity_Experiment_v1,2020.1.2,MacIntel,60,5ff3a352adaa099f7659f8cc,,,,,,,,,,,,,,,,,,,,FF,,,,,,,,0,1.254,,,,,,,,,,,,,,,,,,,,,,,,,,,,2,-25,79,1,0,0,response7disk,6,101,0,-5,1,0,0,rectangle,0,-5,1,0,0,6,3,0,0.003,0,-5,1,0,0,0,100,100,40,1,,,,,,,,,,,,,,,,,,,,,
,,,,,,,,,,,,,,,,,,,,,,,,,,,,,,,,,,,,,,,,,,,5e3f0bbe9907e915e0179f44,5ff3a3f40a5e7fa057a9baed,2021-01-04_23h26.07.443,Colour_Similarity_Experiment_v1,2020.1.2,MacIntel,60,5ff3a352adaa099f7659f8cc,,,,,,,,,,,,,,,,,,,,PF,,,,,,,,5,2.327,,,,,,,,,,,,,,,,,,,,,,,,,,,,7,91,-34,1,0,0,response3disk,5,102,19,-2,1,0,0,rectangle,19,-2,1,0,0,6,5,0,0.003,19,-2,1,0,0,0,101,101,92,1,,,,,,,,,,,,,,,,,,,,,
,,,,,,,,,,,,,,,,,,,,,,,,,,,,,,,,,,,,,,,,,,,5e3f0bbe9907e915e0179f44,5ff3a3f40a5e7fa057a9baed,2021-01-04_23h26.07.443,Colour_Similarity_Experiment_v1,2020.1.2,MacIntel,60,5ff3a352adaa099f7659f8cc,,,,,,,,,,,,,,,,,,,,FF,,,,,,,,0,1.004,,,,,,,,,,,,,,,,,,,,,,,,,,,,4,-23,63,1,0,0,response7disk,4,103,5,-1,1,0,0,rectangle,5,-1,1,0,0,6,4,0,0.002,5,-1,1,0,0,0,102,102,84,1,,,,,,,,,,,,,,,,,,,,,
,,,,,,,,,,,,,,,,,,,,,,,,,,,,,,,,,,,,,,,,,,,5e3f0bbe9907e915e0179f44,5ff3a3f40a5e7fa057a9baed,2021-01-04_23h26.07.443,Colour_Similarity_Experiment_v1,2020.1.2,MacIntel,60,5ff3a352adaa099f7659f8cc,,,,,,,,,,,,,,,,,,,,PF,,,,,,,,7,1.218,,,,,,,,,,,,,,,,,,,,,,,,,,,,9,40,83,1,0,0,response1disk,5,104,1,-5,1,0,0,rectangle,1,-5,1,0,0,6,7,0,0.003,1,-5,1,0,0,0,103,103,134,1,,,,,,,,,,,,,,,,,,,,,
,,,,,,,,,,,,,,,,,,,,,,,,,,,,,,,,,,,,,,,,,,,5e3f0bbe9907e915e0179f44,5ff3a3f40a5e7fa057a9baed,2021-01-04_23h26.07.443,Colour_Similarity_Experiment_v1,2020.1.2,MacIntel,60,5ff3a352adaa099f7659f8cc,,,,,,,,,,,,,,,,,,,,PF,,,,,,,,7,1.153,,,,,,,,,,,,,,,,,,,,,,,,,,,,2,33,63,1,0,0,response1disk,4,105,10,8,1,0,0,rectangle,10,8,1,0,0,6,1,0,0.001,10,8,1,0,0,0,104,104,127,1,,,,,,,,,,,,,,,,,,,,,
,,,,,,,,,,,,,,,,,,,,,,,,,,,,,,,,,,,,,,,,,,,5e3f0bbe9907e915e0179f44,5ff3a3f40a5e7fa057a9baed,2021-01-04_23h26.07.443,Colour_Similarity_Experiment_v1,2020.1.2,MacIntel,60,5ff3a352adaa099f7659f8cc,,,,,,,,,,,,,,,,,,,,PF,,,,,,,,5,3.442,,,,,,,,,,,,,,,,,,,,,,,,,,,,4,95,-37,1,0,0,response3disk,5,106,-14,-4,1,0,0,rectangle,-14,-4,1,0,0,6,4,0,0.002,-14,-4,1,0,0,0,105,105,49,1,,,,,,,,,,,,,,,,,,,,,
,,,,,,,,,,,,,,,,,,,,,,,,,,,,,,,,,,,,,,,,,,,5e3f0bbe9907e915e0179f44,5ff3a3f40a5e7fa057a9baed,2021-01-04_23h26.07.443,Colour_Similarity_Experiment_v1,2020.1.2,MacIntel,60,5ff3a352adaa099f7659f8cc,,,,,,,,,,,,,,,,,,,,FF,,,,,,,,7,0.991,,,,,,,,,,,,,,,,,,,,,,,,,,,,4,31,63,1,0,0,response1disk,7,107,-5,-16,1,0,0,rectangle,-5,-16,1,0,0,6,7,0,0.002,-5,-16,1,0,0,0,106,106,87,1,,,,,,,,,,,,,,,,,,,,,
,,,,,,,,,,,,,,,,,,,,,,,,,,,,,,,,,,,,,,,,,,,5e3f0bbe9907e915e0179f44,5ff3a3f40a5e7fa057a9baed,2021-01-04_23h26.07.443,Colour_Similarity_Experiment_v1,2020.1.2,MacIntel,60,5ff3a352adaa099f7659f8cc,,,,,,,,,,,,,,,,,,,,FF,,,,,,,,1,1.201,,,,,,,,,,,,,,,,,,,,,,,,,,,,3,-69,26,1,0,0,response7disk,4,108,-17,-5,1,0,0,rectangle,-17,-5,1,0,0,6,3,0,0.002,-17,-5,1,0,0,0,107,107,110,1,,,,,,,,,,,,,,,,,,,,,
,,,,,,,,,,,,,,,,,,,,,,,,,,,,,,,,,,,,,,,,,,,5e3f0bbe9907e915e0179f44,5ff3a3f40a5e7fa057a9baed,2021-01-04_23h26.07.443,Colour_Similarity_Experiment_v1,2020.1.2,MacIntel,60,5ff3a352adaa099f7659f8cc,,,,,,,,,,,,,,,,,,,,PF,,,,,,,,6,2.221,,,,,,,,,,,,,,,,,,,,,,,,,,,,7,75,20,1,0,0,response1disk,8,109,14,6,1,0,0,rectangle,14,6,1,0,0,6,6,0,0.002,14,6,1,0,0,0,108,108,140,1,,,,,,,,,,,,,,,,,,,,,
,,,,,,,,,,,,,,,,,,,,,,,,,,,,,,,,,,,,,,,,,,,5e3f0bbe9907e915e0179f44,5ff3a3f40a5e7fa057a9baed,2021-01-04_23h26.07.443,Colour_Similarity_Experiment_v1,2020.1.2,MacIntel,60,5ff3a352adaa099f7659f8cc,,,,,,,,,,,,,,,,,,,,PF,,,,,,,,7,0.904,,,,,,,,,,,,,,,,,,,,,,,,,,,,1,37,108,1,0,0,response1disk,3,110,1,-6,1,0,0,rectangle,1,-6,1,0,0,6,6,0,0.004,1,-6,1,0,0,0,109,109,1,1,,,,,,,,,,,,,,,,,,,,,
,,,,,,,,,,,,,,,,,,,,,,,,,,,,,,,,,,,,,,,,,,,5e3f0bbe9907e915e0179f44,5ff3a3f40a5e7fa057a9baed,2021-01-04_23h26.07.443,Colour_Similarity_Experiment_v1,2020.1.2,MacIntel,60,5ff3a352adaa099f7659f8cc,,,,,,,,,,,,,,,,,,,,PF,,,,,,,,7,1.269,,,,,,,,,,,,,,,,,,,,,,,,,,,,4,40,70,1,0,0,response1disk,6,111,-2,5,1,0,0,rectangle,-2,5,1,0,0,6,0,0,0.002,-2,5,1,0,0,0,110,110,120,1,,,,,,,,,,,,,,,,,,,,,
,,,,,,,,,,,,,,,,,,,,,,,,,,,,,,,,,,,,,,,,,,,5e3f0bbe9907e915e0179f44,5ff3a3f40a5e7fa057a9baed,2021-01-04_23h26.07.443,Colour_Similarity_Experiment_v1,2020.1.2,MacIntel,60,5ff3a352adaa099f7659f8cc,,,,,,,,,,,,,,,,,,,,PF,,,,,,,,7,2.239,,,,,,,,,,,,,,,,,,,,,,,,,,,,8,40,79,1,0,0,response1disk,1,112,-10,-16,1,0,0,rectangle,-10,-16,1,0,0,6,7,0,0.001,-10,-16,1,0,0,0,111,111,57,1,,,,,,,,,,,,,,,,,,,,,
,,,,,,,,,,,,,,,,,,,,,,,,,,,,,,,,,,,,,,,,,,,5e3f0bbe9907e915e0179f44,5ff3a3f40a5e7fa057a9baed,2021-01-04_23h26.07.443,Colour_Similarity_Experiment_v1,2020.1.2,MacIntel,60,5ff3a352adaa099f7659f8cc,,,,,,,,,,,,,,,,,,,,PF,,,,,,,,1,1.103,,,,,,,,,,,,,,,,,,,,,,,,,,,,8,-59,35,1,0,0,response7disk,8,113,-6,0,1,0,0,rectangle,-6,0,1,0,0,6,1,0,0.003,-6,0,1,0,0,0,112,112,153,1,,,,,,,,,,,,,,,,,,,,,
,,,,,,,,,,,,,,,,,,,,,,,,,,,,,,,,,,,,,,,,,,,5e3f0bbe9907e915e0179f44,5ff3a3f40a5e7fa057a9baed,2021-01-04_23h26.07.443,Colour_Similarity_Experiment_v1,2020.1.2,MacIntel,60,5ff3a352adaa099f7659f8cc,,,,,,,,,,,,,,,,,,,,FF,,,,,,,,7,0.938,,,,,,,,,,,,,,,,,,,,,,,,,,,,7,25,57,1,0,0,response1disk,2,114,12,6,1,0,0,rectangle,12,6,1,0,0,6,1,0,0.002,12,6,1,0,0,0,113,113,138,1,,,,,,,,,,,,,,,,,,,,,
,,,,,,,,,,,,,,,,,,,,,,,,,,,,,,,,,,,,,,,,,,,5e3f0bbe9907e915e0179f44,5ff3a3f40a5e7fa057a9baed,2021-01-04_23h26.07.443,Colour_Similarity_Experiment_v1,2020.1.2,MacIntel,60,5ff3a352adaa099f7659f8cc,,,,,,,,,,,,,,,,,,,,FF,,,,,,,,7,0.888,,,,,,,,,,,,,,,,,,,,,,,,,,,,9,36,75,1,0,0,response1disk,4,115,13,12,1,0,0,rectangle,13,12,1,0,0,6,7,0,0.002,13,12,1,0,0,0,114,114,60,1,,,,,,,,,,,,,,,,,,,,,
,,,,,,,,,,,,,,,,,,,,,,,,,,,,,,,,,,,,,,,,,,,5e3f0bbe9907e915e0179f44,5ff3a3f40a5e7fa057a9baed,2021-01-04_23h26.07.443,Colour_Similarity_Experiment_v1,2020.1.2,MacIntel,60,5ff3a352adaa099f7659f8cc,,,,,,,,,,,,,,,,,,,,PF,,,,,,,,5,1.903,,,,,,,,,,,,,,,,,,,,,,,,,,,,5,100,-31,1,0,0,response3disk,6,116,8,-15,1,0,0,rectangle,8,-15,1,0,0,6,0,0,0.002,8,-15,1,0,0,0,115,115,103,1,,,,,,,,,,,,,,,,,,,,,
,,,,,,,,,,,,,,,,,,,,,,,,,,,,,,,,,,,,,,,,,,,5e3f0bbe9907e915e0179f44,5ff3a3f40a5e7fa057a9baed,2021-01-04_23h26.07.443,Colour_Similarity_Experiment_v1,2020.1.2,MacIntel,60,5ff3a352adaa099f7659f8cc,,,,,,,,,,,,,,,,,,,,FF,,,,,,,,7,0.902,,,,,,,,,,,,,,,,,,,,,,,,,,,,6,42,72,1,0,0,response1disk,1,117,13,12,1,0,0,rectangle,13,12,1,0,0,6,6,0,0.002,13,12,1,0,0,0,116,116,5,1,,,,,,,,,,,,,,,,,,,,,
,,,,,,,,,,,,,,,,,,,,,,,,,,,,,,,,,,,,,,,,,,,5e3f0bbe9907e915e0179f44,5ff3a3f40a5e7fa057a9baed,2021-01-04_23h26.07.443,Colour_Similarity_Experiment_v1,2020.1.2,MacIntel,60,5ff3a352adaa099f7659f8cc,,,,,,,,,,,,,,,,,,,,PF,,,,,,,,7,0.978,,,,,,,,,,,,,,,,,,,,,,,,,,,,6,31,68,1,0,0,response1disk,2,118,-3,-2,1,0,0,rectangle,-3,-2,1,0,0,6,6,0,0.002,-3,-2,1,0,0,0,117,117,130,1,,,,,,,,,,,,,,,,,,,,,
,,,,,,,,,,,,,,,,,,,,,,,,,,,,,,,,,,,,,,,,,,,5e3f0bbe9907e915e0179f44,5ff3a3f40a5e7fa057a9baed,2021-01-04_23h26.07.443,Colour_Similarity_Experiment_v1,2020.1.2,MacIntel,60,5ff3a352adaa099f7659f8cc,,,,,,,,,,,,,,,,,,,,FF,,,,,,,,0,1,,,,,,,,,,,,,,,,,,,,,,,,,,,,9,-38,70,1,0,0,response7disk,9,119,-16,4,1,0,0,rectangle,-16,4,1,0,0,6,0,0,0.003,-16,4,1,0,0,0,118,118,17,1,,,,,,,,,,,,,,,,,,,,,
,,,,,,,,,,,,,,,,,,,,,,,,,,,,,,,,,,,,,,,,,,,5e3f0bbe9907e915e0179f44,5ff3a3f40a5e7fa057a9baed,2021-01-04_23h26.07.443,Colour_Similarity_Experiment_v1,2020.1.2,MacIntel,60,5ff3a352adaa099f7659f8cc,,,,,,,,,,,,,,,,,,,,PF,,,,,,,,7,0.854,,,,,,,,,,,,,,,,,,,,,,,,,,,,3,28,79,1,0,0,response1disk,1,120,13,-6,1,0,0,rectangle,13,-6,1,0,0,6,5,0,0.001,13,-6,1,0,0,0,119,119,96,1,,,,,,,,,,,,,,,,,,,,,
,,,,,,,,,,,,,,,,,,,,,,,,,,,,,,,,,,,,,,,,,,,5e3f0bbe9907e915e0179f44,5ff3a3f40a5e7fa057a9baed,2021-01-04_23h26.07.443,Colour_Similarity_Experiment_v1,2020.1.2,MacIntel,60,5ff3a352adaa099f7659f8cc,,,,,,,,,,,,,,,,,,,,FF,,,,,,,,7,0.785,,,,,,,,,,,,,,,,,,,,,,,,,,,,4,30,65,1,0,0,response1disk,2,121,8,-10,1,0,0,rectangle,8,-10,1,0,0,6,3,0,0.002,8,-10,1,0,0,0,120,120,13,1,,,,,,,,,,,,,,,,,,,,,
,,,,,,,,,,,,,,,,,,,,,,,,,,,,,,,,,,,,,,,,,,,5e3f0bbe9907e915e0179f44,5ff3a3f40a5e7fa057a9baed,2021-01-04_23h26.07.443,Colour_Similarity_Experiment_v1,2020.1.2,MacIntel,60,5ff3a352adaa099f7659f8cc,,,,,,,,,,,,,,,,,,,,FF,,,,,,,,7,0.636,,,,,,,,,,,,,,,,,,,,,,,,,,,,1,43,75,1,0,0,response1disk,2,122,6,-3,1,0,0,rectangle,6,-3,1,0,0,6,6,0,0.002,6,-3,1,0,0,0,121,121,2,1,,,,,,,,,,,,,,,,,,,,,
,,,,,,,,,,,,,,,,,,,,,,,,,,,,,,,,,,,,,,,,,,,5e3f0bbe9907e915e0179f44,5ff3a3f40a5e7fa057a9baed,2021-01-04_23h26.07.443,Colour_Similarity_Experiment_v1,2020.1.2,MacIntel,60,5ff3a352adaa099f7659f8cc,,,,,,,,,,,,,,,,,,,,PF,,,,,,,,7,0.893,,,,,,,,,,,,,,,,,,,,,,,,,,,,2,52,69,1,0,0,response1disk,1,123,14,7,1,0,0,rectangle,14,7,1,0,0,6,6,0,0.003,14,7,1,0,0,0,122,122,9,1,,,,,,,,,,,,,,,,,,,,,
,,,,,,,,,,,,,,,,,,,,,,,,,,,,,,,,,,,,,,,,,,,5e3f0bbe9907e915e0179f44,5ff3a3f40a5e7fa057a9baed,2021-01-04_23h26.07.443,Colour_Similarity_Experiment_v1,2020.1.2,MacIntel,60,5ff3a352adaa099f7659f8cc,,,,,,,,,,,,,,,,,,,,PF,,,,,,,,7,0.835,,,,,,,,,,,,,,,,,,,,,,,,,,,,5,36,63,1,0,0,response1disk,8,124,16,-6,1,0,0,rectangle,16,-6,1,0,0,6,2,0,0.004,16,-6,1,0,0,0,123,123,149,1,,,,,,,,,,,,,,,,,,,,,
,,,,,,,,,,,,,,,,,,,,,,,,,,,,,,,,,,,,,,,,,,,5e3f0bbe9907e915e0179f44,5ff3a3f40a5e7fa057a9baed,2021-01-04_23h26.07.443,Colour_Similarity_Experiment_v1,2020.1.2,MacIntel,60,5ff3a352adaa099f7659f8cc,,,,,,,,,,,,,,,,,,,,FF,,,,,,,,7,0.935,,,,,,,,,,,,,,,,,,,,,,,,,,,,5,36,56,1,0,0,response1disk,9,125,16,6,1,0,0,rectangle,16,6,1,0,0,6,7,0,0.003,16,6,1,0,0,0,124,124,61,1,,,,,,,,,,,,,,,,,,,,,
,,,,,,,,,,,,,,,,,,,,,,,,,,,,,,,,,,,,,,,,,,,5e3f0bbe9907e915e0179f44,5ff3a3f40a5e7fa057a9baed,2021-01-04_23h26.07.443,Colour_Similarity_Experiment_v1,2020.1.2,MacIntel,60,5ff3a352adaa099f7659f8cc,,,,,,,,,,,,,,,,,,,,FF,,,,,,,,7,0.786,,,,,,,,,,,,,,,,,,,,,,,,,,,,3,46,86,1,0,0,response1disk,6,126,9,-13,1,0,0,rectangle,9,-13,1,0,0,6,4,0,0.002,9,-13,1,0,0,0,125,125,95,1,,,,,,,,,,,,,,,,,,,,,
,,,,,,,,,,,,,,,,,,,,,,,,,,,,,,,,,,,,,,,,,,,5e3f0bbe9907e915e0179f44,5ff3a3f40a5e7fa057a9baed,2021-01-04_23h26.07.443,Colour_Similarity_Experiment_v1,2020.1.2,MacIntel,60,5ff3a352adaa099f7659f8cc,,,,,,,,,,,,,,,,,,,,PF,,,,,,,,7,0.705,,,,,,,,,,,,,,,,,,,,,,,,,,,,1,42,73,1,0,0,response1disk,4,127,9,9,1,0,0,rectangle,9,9,1,0,0,6,2,0,0.004,9,9,1,0,0,0,126,126,139,1,,,,,,,,,,,,,,,,,,,,,
,,,,,,,,,,,,,,,,,,,,,,,,,,,,,,,,,,,,,,,,,,,5e3f0bbe9907e915e0179f44,5ff3a3f40a5e7fa057a9baed,2021-01-04_23h26.07.443,Colour_Similarity_Experiment_v1,2020.1.2,MacIntel,60,5ff3a352adaa099f7659f8cc,,,,,,,,,,,,,,,,,,,,PF,,,,,,,,7,0.685,,,,,,,,,,,,,,,,,,,,,,,,,,,,3,32,67,1,0,0,response1disk,6,128,11,-4,1,0,0,rectangle,11,-4,1,0,0,6,1,0,0.001,11,-4,1,0,0,0,127,127,47,1,,,,,,,,,,,,,,,,,,,,,
,,,,,,,,,,,,,,,,,,,,,,,,,,,,,,,,,,,,,,,,,,,5e3f0bbe9907e915e0179f44,5ff3a3f40a5e7fa057a9baed,2021-01-04_23h26.07.443,Colour_Similarity_Experiment_v1,2020.1.2,MacIntel,60,5ff3a352adaa099f7659f8cc,,,,,,,,,,,,,,,,,,,,PF,,,,,,,,0,1.22,,,,,,,,,,,,,,,,,,,,,,,,,,,,4,-47,57,1,0,0,response7disk,3,129,-10,-2,1,0,0,rectangle,-10,-2,1,0,0,6,4,0,0.002,-10,-2,1,0,0,0,128,128,89,1,,,,,,,,,,,,,,,,,,,,,
,,,,,,,,,,,,,,,,,,,,,,,,,,,,,,,,,,,,,,,,,,,5e3f0bbe9907e915e0179f44,5ff3a3f40a5e7fa057a9baed,2021-01-04_23h26.07.443,Colour_Similarity_Experiment_v1,2020.1.2,MacIntel,60,5ff3a352adaa099f7659f8cc,,,,,,,,,,,,,,,,,,,,PF,,,,,,,,2,1.704,,,,,,,,,,,,,,,,,,,,,,,,,,,,5,-64,-46,1,0,0,response5disk,4,130,-15,-4,1,0,0,rectangle,-15,-4,1,0,0,6,6,0,0.003,-15,-4,1,0,0,0,129,129,54,1,,,,,,,,,,,,,,,,,,,,,
,,,,,,,,,,,,,,,,,,,,,,,,,,,,,,,,,,,,,,,,,,,5e3f0bbe9907e915e0179f44,5ff3a3f40a5e7fa057a9baed,2021-01-04_23h26.07.443,Colour_Similarity_Experiment_v1,2020.1.2,MacIntel,60,5ff3a352adaa099f7659f8cc,,,,,,,,,,,,,,,,,,,,PF,,,,,,,,0,1.02,,,,,,,,,,,,,,,,,,,,,,,,,,,,1,-26,77,1,0,0,response7disk,1,131,-22,6,1,0,0,rectangle,35,94,1,0,0,7,7,1,1.82,-19,-9,1,0,0,0,130,130,76,1,response1disk_3,rectangle,,,,,,,,,,,,,,,,,,,
,,,,,,,,,,,,,,,,,,,,,,,,,,,,,,,,,,,,,,,,,,,5e3f0bbe9907e915e0179f44,5ff3a3f40a5e7fa057a9baed,2021-01-04_23h26.07.443,Colour_Similarity_Experiment_v1,2020.1.2,MacIntel,60,5ff3a352adaa099f7659f8cc,,,,,,,,,,,,,,,,,,,,FF,,,,,,,,0,0.881,,,,,,,,,,,,,,,,,,,,,,,,,,,,5,-42,76,1,0,0,response7disk,5,132,-9,-14,1,0,0,rectangle,-9,-14,1,0,0,7,4,0,0.002,-9,-14,1,0,0,0,131,131,19,1,,,,,,,,,,,,,,,,,,,,,
,,,,,,,,,,,,,,,,,,,,,,,,,,,,,,,,,,,,,,,,,,,5e3f0bbe9907e915e0179f44,5ff3a3f40a5e7fa057a9baed,2021-01-04_23h26.07.443,Colour_Similarity_Experiment_v1,2020.1.2,MacIntel,60,5ff3a352adaa099f7659f8cc,,,,,,,,,,,,,,,,,,,,PF,,,,,,,,7,1.051,,,,,,,,,,,,,,,,,,,,,,,,,,,,2,43,68,1,0,0,response1disk,6,133,7,8,1,0,0,rectangle,7,8,1,0,0,7,4,0,0.004,7,8,1,0,0,0,132,132,113,1,,,,,,,,,,,,,,,,,,,,,
,,,,,,,,,,,,,,,,,,,,,,,,,,,,,,,,,,,,,,,,,,,5e3f0bbe9907e915e0179f44,5ff3a3f40a5e7fa057a9baed,2021-01-04_23h26.07.443,Colour_Similarity_Experiment_v1,2020.1.2,MacIntel,60,5ff3a352adaa099f7659f8cc,,,,,,,,,,,,,,,,,,,,FF,,,,,,,,7,0.651,,,,,,,,,,,,,,,,,,,,,,,,,,,,4,34,63,1,0,0,response1disk,8,134,26,12,1,0,0,rectangle,26,12,1,0,0,7,4,0,0.001,26,12,1,0,0,0,133,133,35,1,,,,,,,,,,,,,,,,,,,,,
,,,,,,,,,,,,,,,,,,,,,,,,,,,,,,,,,,,,,,,,,,,5e3f0bbe9907e915e0179f44,5ff3a3f40a5e7fa057a9baed,2021-01-04_23h26.07.443,Colour_Similarity_Experiment_v1,2020.1.2,MacIntel,60,5ff3a352adaa099f7659f8cc,,,,,,,,,,,,,,,,,,,,PF,,,,,,,,6,1.57,,,,,,,,,,,,,,,,,,,,,,,,,,,,5,96,51,1,0,0,response1disk,7,135,-17,-5,1,0,0,rectangle,-17,-5,1,0,0,7,1,0,0.002,-17,-5,1,0,0,0,134,134,146,1,,,,,,,,,,,,,,,,,,,,,
,,,,,,,,,,,,,,,,,,,,,,,,,,,,,,,,,,,,,,,,,,,5e3f0bbe9907e915e0179f44,5ff3a3f40a5e7fa057a9baed,2021-01-04_23h26.07.443,Colour_Similarity_Experiment_v1,2020.1.2,MacIntel,60,5ff3a352adaa099f7659f8cc,,,,,,,,,,,,,,,,,,,,PF,,,,,,,,0,1.404,,,,,,,,,,,,,,,,,,,,,,,,,,,,6,-37,74,1,0,0,response7disk,6,136,-4,1,1,0,0,rectangle,-4,1,1,0,0,7,6,0,0.003,-4,1,1,0,0,0,135,135,0,1,,,,,,,,,,,,,,,,,,,,,
,,,,,,,,,,,,,,,,,,,,,,,,,,,,,,,,,,,,,,,,,,,5e3f0bbe9907e915e0179f44,5ff3a3f40a5e7fa057a9baed,2021-01-04_23h26.07.443,Colour_Similarity_Experiment_v1,2020.1.2,MacIntel,60,5ff3a352adaa099f7659f8cc,,,,,,,,,,,,,,,,,,,,PF,,,,,,,,6,1.624,,,,,,,,,,,,,,,,,,,,,,,,,,,,6,78,41,1,0,0,response1disk,4,137,-19,-13,1,0,0,rectangle,-19,-13,1,0,0,7,1,0,0.001,-19,-13,1,0,0,0,136,136,33,1,,,,,,,,,,,,,,,,,,,,,
,,,,,,,,,,,,,,,,,,,,,,,,,,,,,,,,,,,,,,,,,,,5e3f0bbe9907e915e0179f44,5ff3a3f40a5e7fa057a9baed,2021-01-04_23h26.07.443,Colour_Similarity_Experiment_v1,2020.1.2,MacIntel,60,5ff3a352adaa099f7659f8cc,,,,,,,,,,,,,,,,,,,,FF,,,,,,,,1,1.287,,,,,,,,,,,,,,,,,,,,,,,,,,,,2,-82,38,1,0,0,response7disk,2,138,-31,6,1,0,0,rectangle,-31,6,1,0,0,7,1,0,0.003,-31,6,1,0,0,0,137,137,142,1,,,,,,,,,,,,,,,,,,,,,
,,,,,,,,,,,,,,,,,,,,,,,,,,,,,,,,,,,,,,,,,,,5e3f0bbe9907e915e0179f44,5ff3a3f40a5e7fa057a9baed,2021-01-04_23h26.07.443,Colour_Similarity_Experiment_v1,2020.1.2,MacIntel,60,5ff3a352adaa099f7659f8cc,,,,,,,,,,,,,,,,,,,,FF,,,,,,,,7,0.823,,,,,,,,,,,,,,,,,,,,,,,,,,,,4,26,96,1,0,0,response1disk,1,139,0,4,1,0,0,rectangle,0,4,1,0,0,7,3,0,0.002,0,4,1,0,0,0,138,138,102,1,,,,,,,,,,,,,,,,,,,,,
,,,,,,,,,,,,,,,,,,,,,,,,,,,,,,,,,,,,,,,,,,,5e3f0bbe9907e915e0179f44,5ff3a3f40a5e7fa057a9baed,2021-01-04_23h26.07.443,Colour_Similarity_Experiment_v1,2020.1.2,MacIntel,60,5ff3a352adaa099f7659f8cc,,,,,,,,,,,,,,,,,,,,PF,,,,,,,,7,1.352,,,,,,,,,,,,,,,,,,,,,,,,,,,,2,61,88,1,0,0,response1disk,7,140,20,-2,1,0,0,rectangle,20,-2,1,0,0,7,2,0,0.002,20,-2,1,0,0,0,139,139,107,1,,,,,,,,,,,,,,,,,,,,,
,,,,,,,,,,,,,,,,,,,,,,,,,,,,,,,,,,,,,,,,,,,5e3f0bbe9907e915e0179f44,5ff3a3f40a5e7fa057a9baed,2021-01-04_23h26.07.443,Colour_Similarity_Experiment_v1,2020.1.2,MacIntel,60,5ff3a352adaa099f7659f8cc,,,,,,,,,,,,,,,,,,,,FF,,,,,,,,7,0.835,,,,,,,,,,,,,,,,,,,,,,,,,,,,9,42,64,1,0,0,response1disk,3,141,9,14,1,0,0,rectangle,9,14,1,0,0,7,5,0,0.002,9,14,1,0,0,0,140,140,141,1,,,,,,,,,,,,,,,,,,,,,
,,,,,,,,,,,,,,,,,,,,,,,,,,,,,,,,,,,,,,,,,,,5e3f0bbe9907e915e0179f44,5ff3a3f40a5e7fa057a9baed,2021-01-04_23h26.07.443,Colour_Similarity_Experiment_v1,2020.1.2,MacIntel,60,5ff3a352adaa099f7659f8cc,,,,,,,,,,,,,,,,,,,,FF,,,,,,,,7,0.702,,,,,,,,,,,,,,,,,,,,,,,,,,,,2,24,56,1,0,0,response1disk,5,142,10,-5,1,0,0,rectangle,10,-5,1,0,0,7,6,0,0.001,10,-5,1,0,0,0,141,141,80,1,,,,,,,,,,,,,,,,,,,,,
,,,,,,,,,,,,,,,,,,,,,,,,,,,,,,,,,,,,,,,,,,,5e3f0bbe9907e915e0179f44,5ff3a3f40a5e7fa057a9baed,2021-01-04_23h26.07.443,Colour_Similarity_Experiment_v1,2020.1.2,MacIntel,60,5ff3a352adaa099f7659f8cc,,,,,,,,,,,,,,,,,,,,FF,,,,,,,,6,1.059,,,,,,,,,,,,,,,,,,,,,,,,,,,,7,111,45,1,0,0,response1disk,8,143,-5,-2,1,0,0,rectangle,57,97,1,0,0,7,7,1,1.554,6,9,1,0,0,0,142,142,97,1,response1disk_3,rectangle,,,,,,,,,,,,,,,,,,,
,,,,,,,,,,,,,,,,,,,,,,,,,,,,,,,,,,,,,,,,,,,5e3f0bbe9907e915e0179f44,5ff3a3f40a5e7fa057a9baed,2021-01-04_23h26.07.443,Colour_Similarity_Experiment_v1,2020.1.2,MacIntel,60,5ff3a352adaa099f7659f8cc,,,,,,,,,,,,,,,,,,,,PF,,,,,,,,7,0.758,,,,,,,,,,,,,,,,,,,,,,,,,,,,8,24,49,1,0,0,response1disk,5,144,16,14,1,0,0,rectangle,16,14,1,0,0,6,2,0,0.003,16,14,1,0,0,0,143,143,98,1,,,,,,,,,,,,,,,,,,,,,
,,,,,,,,,,,,,,,,,,,,,,,,,,,,,,,,,,,,,,,,,,,5e3f0bbe9907e915e0179f44,5ff3a3f40a5e7fa057a9baed,2021-01-04_23h26.07.443,Colour_Similarity_Experiment_v1,2020.1.2,MacIntel,60,5ff3a352adaa099f7659f8cc,,,,,,,,,,,,,,,,,,,,PF,,,,,,,,0,0.97,,,,,,,,,,,,,,,,,,,,,,,,,,,,7,-39,73,1,0,0,response7disk,7,145,-18,11,1,0,0,rectangle,-18,11,1,0,0,6,7,0,0.001,-18,11,1,0,0,0,144,144,51,1,,,,,,,,,,,,,,,,,,,,,
,,,,,,,,,,,,,,,,,,,,,,,,,,,,,,,,,,,,,,,,,,,5e3f0bbe9907e915e0179f44,5ff3a3f40a5e7fa057a9baed,2021-01-04_23h26.07.443,Colour_Similarity_Experiment_v1,2020.1.2,MacIntel,60,5ff3a352adaa099f7659f8cc,,,,,,,,,,,,,,,,,,,,FF,,,,,,,,7,0.935,,,,,,,,,,,,,,,,,,,,,,,,,,,,3,29,71,1,0,0,response1disk,9,146,-5,-15,1,0,0,rectangle,-5,-15,1,0,0,6,0,0,0.003,-5,-15,1,0,0,0,145,145,143,1,,,,,,,,,,,,,,,,,,,,,
,,,,,,,,,,,,,,,,,,,,,,,,,,,,,,,,,,,,,,,,,,,5e3f0bbe9907e915e0179f44,5ff3a3f40a5e7fa057a9baed,2021-01-04_23h26.07.443,Colour_Similarity_Experiment_v1,2020.1.2,MacIntel,60,5ff3a352adaa099f7659f8cc,,,,,,,,,,,,,,,,,,,,FF,,,,,,,,6,1.452,,,,,,,,,,,,,,,,,,,,,,,,,,,,7,81,43,1,0,0,response1disk,5,147,15,11,1,0,0,rectangle,15,11,1,0,0,6,5,0,0.002,15,11,1,0,0,0,146,146,156,1,,,,,,,,,,,,,,,,,,,,,
,,,,,,,,,,,,,,,,,,,,,,,,,,,,,,,,,,,,,,,,,,,5e3f0bbe9907e915e0179f44,5ff3a3f40a5e7fa057a9baed,2021-01-04_23h26.07.443,Colour_Similarity_Experiment_v1,2020.1.2,MacIntel,60,5ff3a352adaa099f7659f8cc,,,,,,,,,,,,,,,,,,,,PF,,,,,,,,7,1,,,,,,,,,,,,,,,,,,,,,,,,,,,,3,42,76,1,0,0,response1disk,2,148,4,0,1,0,0,rectangle,36,-100,1,0,0,4,4,1,2.438,-10,-8,1,0,0,0,147,147,36,1,response3disk_3,rectangle,,,,,,,,,,,,,,,,,,,
,,,,,,,,,,,,,,,,,,,,,,,,,,,,,,,,,,,,,,,,,,,5e3f0bbe9907e915e0179f44,5ff3a3f40a5e7fa057a9baed,2021-01-04_23h26.07.443,Colour_Similarity_Experiment_v1,2020.1.2,MacIntel,60,5ff3a352adaa099f7659f8cc,,,,,,,,,,,,,,,,,,,,PF,,,,,,,,7,0.986,,,,,,,,,,,,,,,,,,,,,,,,,,,,2,65,96,1,0,0,response1disk,5,149,-2,4,1,0,0,rectangle,-2,4,1,0,0,4,3,0,0.001,-2,4,1,0,0,0,148,148,147,1,,,,,,,,,,,,,,,,,,,,,
,,,,,,,,,,,,,,,,,,,,,,,,,,,,,,,,,,,,,,,,,,,5e3f0bbe9907e915e0179f44,5ff3a3f40a5e7fa057a9baed,2021-01-04_23h26.07.443,Colour_Similarity_Experiment_v1,2020.1.2,MacIntel,60,5ff3a352adaa099f7659f8cc,,,,,,,,,,,,,,,,,,,,PF,,,,,,,,7,0.769,,,,,,,,,,,,,,,,,,,,,,,,,,,,9,33,69,1,0,0,response1disk,2,150,12,-2,1,0,0,rectangle,12,-2,1,0,0,4,3,0,0.001,12,-2,1,0,0,0,149,149,157,1,,,,,,,,,,,,,,,,,,,,,
,,,,,,,,,,,,,,,,,,,,,,,,,,,,,,,,,,,,,,,,,,,5e3f0bbe9907e915e0179f44,5ff3a3f40a5e7fa057a9baed,2021-01-04_23h26.07.443,Colour_Similarity_Experiment_v1,2020.1.2,MacIntel,60,5ff3a352adaa099f7659f8cc,,,,,,,,,,,,,,,,,,,,FF,,,,,,,,6,1.071,,,,,,,,,,,,,,,,,,,,,,,,,,,,8,83,58,1,0,0,response1disk,6,151,11,-1,1,0,0,rectangle,11,-1,1,0,0,4,6,0,0.003,11,-1,1,0,0,0,150,150,37,1,,,,,,,,,,,,,,,,,,,,,
,,,,,,,,,,,,,,,,,,,,,,,,,,,,,,,,,,,,,,,,,,,5e3f0bbe9907e915e0179f44,5ff3a3f40a5e7fa057a9baed,2021-01-04_23h26.07.443,Colour_Similarity_Experiment_v1,2020.1.2,MacIntel,60,5ff3a352adaa099f7659f8cc,,,,,,,,,,,,,,,,,,,,PF,,,,,,,,7,0.8,,,,,,,,,,,,,,,,,,,,,,,,,,,,1,35,80,1,0,0,response1disk,7,152,24,7,1,0,0,rectangle,24,7,1,0,0,4,0,0,0.001,24,7,1,0,0,0,151,151,150,1,,,,,,,,,,,,,,,,,,,,,
,,,,,,,,,,,,,,,,,,,,,,,,,,,,,,,,,,,,,,,,,,,5e3f0bbe9907e915e0179f44,5ff3a3f40a5e7fa057a9baed,2021-01-04_23h26.07.443,Colour_Similarity_Experiment_v1,2020.1.2,MacIntel,60,5ff3a352adaa099f7659f8cc,,,,,,,,,,,,,,,,,,,,FF,,,,,,,,7,1.507,,,,,,,,,,,,,,,,,,,,,,,,,,,,4,47,98,1,0,0,response1disk,6,153,-1,15,1,0,0,rectangle,-1,15,1,0,0,4,5,0,0.002,-1,15,1,0,0,0,152,152,122,1,,,,,,,,,,,,,,,,,,,,,
,,,,,,,,,,,,,,,,,,,,,,,,,,,,,,,,,,,,,,,,,,,5e3f0bbe9907e915e0179f44,5ff3a3f40a5e7fa057a9baed,2021-01-04_23h26.07.443,Colour_Similarity_Experiment_v1,2020.1.2,MacIntel,60,5ff3a352adaa099f7659f8cc,,,,,,,,,,,,,,,,,,,,FF,,,,,,,,7,0.701,,,,,,,,,,,,,,,,,,,,,,,,,,,,9,31,70,1,0,0,response1disk,5,154,17,2,1,0,0,rectangle,17,2,1,0,0,4,0,0,0.001,17,2,1,0,0,0,153,153,128,1,,,,,,,,,,,,,,,,,,,,,
,,,,,,,,,,,,,,,,,,,,,,,,,,,,,,,,,,,,,,,,,,,5e3f0bbe9907e915e0179f44,5ff3a3f40a5e7fa057a9baed,2021-01-04_23h26.07.443,Colour_Similarity_Experiment_v1,2020.1.2,MacIntel,60,5ff3a352adaa099f7659f8cc,,,,,,,,,,,,,,,,,,,,PF,,,,,,,,0,0.985,,,,,,,,,,,,,,,,,,,,,,,,,,,,9,-31,73,1,0,0,response7disk,9,155,-8,8,1,0,0,rectangle,-8,8,1,0,0,4,6,0,0.002,-8,8,1,0,0,0,154,154,106,1,,,,,,,,,,,,,,,,,,,,,
,,,,,,,,,,,,,,,,,,,,,,,,,,,,,,,,,,,,,,,,,,,5e3f0bbe9907e915e0179f44,5ff3a3f40a5e7fa057a9baed,2021-01-04_23h26.07.443,Colour_Similarity_Experiment_v1,2020.1.2,MacIntel,60,5ff3a352adaa099f7659f8cc,,,,,,,,,,,,,,,,,,,,PF,,,,,,,,7,0.852,,,,,,,,,,,,,,,,,,,,,,,,,,,,9,63,89,1,0,0,response1disk,7,156,19,-6,1,0,0,rectangle,19,-6,1,0,0,4,2,0,0.001,19,-6,1,0,0,0,155,155,121,1,,,,,,,,,,,,,,,,,,,,,
,,,,,,,,,,,,,,,,,,,,,,,,,,,,,,,,,,,,,,,,,,,5e3f0bbe9907e915e0179f44,5ff3a3f40a5e7fa057a9baed,2021-01-04_23h26.07.443,Colour_Similarity_Experiment_v1,2020.1.2,MacIntel,60,5ff3a352adaa099f7659f8cc,,,,,,,,,,,,,,,,,,,,FF,,,,,,,,7,1.52,,,,,,,,,,,,,,,,,,,,,,,,,,,,8,46,73,1,0,0,response1disk,4,157,16,13,1,0,0,rectangle,16,13,1,0,0,4,2,0,0.003,16,13,1,0,0,0,156,156,88,1,,,,,,,,,,,,,,,,,,,,,
,,,,,,,,,,,,,,,,,,,,,,,,,,,,,,,,,,,,,,,,,,,5e3f0bbe9907e915e0179f44,5ff3a3f40a5e7fa057a9baed,2021-01-04_23h26.07.443,Colour_Similarity_Experiment_v1,2020.1.2,MacIntel,60,5ff3a352adaa099f7659f8cc,,,,,,,,,,,,,,,,,,,,PF,,,,,,,,2,1.686,,,,,,,,,,,,,,,,,,,,,,,,,,,,5,-67,-43,1,0,0,response5disk,3,158,-31,-5,1,0,0,rectangle,-31,-5,1,0,0,4,7,0,0.003,-31,-5,1,0,0,0,157,157,109,1,,,,,,,,,,,,,,,,,,,,,
,,,,,,,,,,,,,,,,,,,,,,,,,,,,,,,,,,,,,,,,,,,5e3f0bbe9907e915e0179f44,5ff3a3f40a5e7fa057a9baed,2021-01-04_23h26.07.443,Colour_Similarity_Experiment_v1,2020.1.2,MacIntel,60,5ff3a352adaa099f7659f8cc,,,,,,,,,,,,,,,,,,,,FF,,,,,,,,7,0.802,,,,,,,,,,,,,,,,,,,,,,,,,,,,1,35,75,1,0,0,response1disk,3,159,-1,-1,1,0,0,rectangle,-1,-1,1,0,0,4,3,0,0.004,-1,-1,1,0,0,0,158,158,99,1,,,,,,,,,,,,,,,,,,,,,
,,,,,,,,,,,,,,,,,,,,,,,,,,,,,,,,,,,,,,,,,,,5e3f0bbe9907e915e0179f44,5ff3a3f40a5e7fa057a9baed,2021-01-04_23h26.07.443,Colour_Similarity_Experiment_v1,2020.1.2,MacIntel,60,5ff3a352adaa099f7659f8cc,,,,,,,,,,,,,,,,,,,,PF,,,,,,,,1,3.107,,,,,,,,,,,,,,,,,,,,,,,,,,,,3,-71,29,1,0,0,response7disk,4,160,-22,5,1,0,0,rectangle,-22,5,1,0,0,4,0,0,0.002,-22,5,1,0,0,0,159,159,30,1,,,,,,,,,,,,,,,,,,,,,
,,,,,,,,,,,,,,,,,,,,,,,,,,,,,,,,,,,,,,,,,,,5e3f0bbe9907e915e0179f44,5ff3a3f40a5e7fa057a9baed,2021-01-04_23h26.07.443,Colour_Similarity_Experiment_v1,2020.1.2,MacIntel,60,5ff3a352adaa099f7659f8cc,,,,,,,,,,,,,,,,,,,,PF,,,,,,,,7,1.017,,,,,,,,,,,,,,,,,,,,,,,,,,,,3,40,82,1,0,0,response1disk,8,161,5,5,1,0,0,rectangle,5,5,1,0,0,4,7,0,0.002,5,5,1,0,0,0,160,160,3,1,,,,,,,,,,,,,,,,,,,,,
,,,,,,,,,,,,,,,,,,,,,,,,,,,,,,,,,,,,,,,,,,,5e3f0bbe9907e915e0179f44,5ff3a3f40a5e7fa057a9baed,2021-01-04_23h26.07.443,Colour_Similarity_Experiment_v1,2020.1.2,MacIntel,60,5ff3a352adaa099f7659f8cc,,,,,,,,,,,,,,,,,,,,FF,,,,,,,,7,0.769,,,,,,,,,,,,,,,,,,,,,,,,,,,,8,44,64,1,0,0,response1disk,1,162,22,9,1,0,0,rectangle,22,9,1,0,0,4,2,0,0.001,22,9,1,0,0,0,161,161,20,1,,,,,,,,,,,,,,,,,,,,,
,,,,,,,,,,,,,,,,,,,,,,,,,,,,,,,,,,,,,,,,,,,5e3f0bbe9907e915e0179f44,5ff3a3f40a5e7fa057a9baed,2021-01-04_23h26.07.443,Colour_Similarity_Experiment_v1,2020.1.2,MacIntel,60,5ff3a352adaa099f7659f8cc,,,,,,,,,,,,,,,,,,,,,,,,,,,,,,,,,,,,,,,,,,,,,,,,,,,,,,,,,,,,,,,,,,,,,,,,,,,,,,,,,,,,,,,,,,,,,0,0,0,0,1,,,,,,,,,,,,,,
,,,,,,,,,,,,,,,,,,,,,,,,,,,,,,,,,,,,,,,,,,,5e3f0bbe9907e915e0179f44,5ff3a3f40a5e7fa057a9baed,2021-01-04_23h26.07.443,Colour_Similarity_Experiment_v1,2020.1.2,MacIntel,60,5ff3a352adaa099f7659f8cc,,,,,,,,,,,,,,,,,,,,PF,,,,,,,,7,0.885,,,,,,,,,,,,,,,,,,,,,,,,,,,,9,63,85,1,0,0,response1disk,7,163,15,12,1,0,0,rectangle,15,12,1,0,0,4,7,0,0.002,15,12,1,0,0,0,0,0,121,1,,,,,,,,,,,,,,,,,,,,,
,,,,,,,,,,,,,,,,,,,,,,,,,,,,,,,,,,,,,,,,,,,5e3f0bbe9907e915e0179f44,5ff3a3f40a5e7fa057a9baed,2021-01-04_23h26.07.443,Colour_Similarity_Experiment_v1,2020.1.2,MacIntel,60,5ff3a352adaa099f7659f8cc,,,,,,,,,,,,,,,,,,,,PF,,,,,,,,0,1.07,,,,,,,,,,,,,,,,,,,,,,,,,,,,3,-30,76,1,0,0,response7disk,3,164,-10,13,1,0,0,rectangle,-10,13,1,0,0,4,2,0,0.002,-10,13,1,0,0,0,1,1,4,1,,,,,,,,,,,,,,,,,,,,,
,,,,,,,,,,,,,,,,,,,,,,,,,,,,,,,,,,,,,,,,,,,5e3f0bbe9907e915e0179f44,5ff3a3f40a5e7fa057a9baed,2021-01-04_23h26.07.443,Colour_Similarity_Experiment_v1,2020.1.2,MacIntel,60,5ff3a352adaa099f7659f8cc,,,,,,,,,,,,,,,,,,,,FF,,,,,,,,6,2.624,,,,,,,,,,,,,,,,,,,,,,,,,,,,3,83,40,1,0,0,response1disk,2,165,-14,-2,1,0,0,rectangle,-14,-2,1,0,0,4,7,0,0.002,-14,-2,1,0,0,0,2,2,93,1,,,,,,,,,,,,,,,,,,,,,
,,,,,,,,,,,,,,,,,,,,,,,,,,,,,,,,,,,,,,,,,,,5e3f0bbe9907e915e0179f44,5ff3a3f40a5e7fa057a9baed,2021-01-04_23h26.07.443,Colour_Similarity_Experiment_v1,2020.1.2,MacIntel,60,5ff3a352adaa099f7659f8cc,,,,,,,,,,,,,,,,,,,,PF,,,,,,,,7,1.055,,,,,,,,,,,,,,,,,,,,,,,,,,,,8,50,101,1,0,0,response1disk,5,166,3,1,1,0,0,rectangle,3,1,1,0,0,4,2,0,0.002,3,1,1,0,0,0,3,3,98,1,,,,,,,,,,,,,,,,,,,,,
,,,,,,,,,,,,,,,,,,,,,,,,,,,,,,,,,,,,,,,,,,,5e3f0bbe9907e915e0179f44,5ff3a3f40a5e7fa057a9baed,2021-01-04_23h26.07.443,Colour_Similarity_Experiment_v1,2020.1.2,MacIntel,60,5ff3a352adaa099f7659f8cc,,,,,,,,,,,,,,,,,,,,FF,,,,,,,,7,0.702,,,,,,,,,,,,,,,,,,,,,,,,,,,,2,41,89,1,0,0,response1disk,9,167,0,-3,1,0,0,rectangle,0,-3,1,0,0,4,6,0,0.003,0,-3,1,0,0,0,4,4,72,1,,,,,,,,,,,,,,,,,,,,,
,,,,,,,,,,,,,,,,,,,,,,,,,,,,,,,,,,,,,,,,,,,5e3f0bbe9907e915e0179f44,5ff3a3f40a5e7fa057a9baed,2021-01-04_23h26.07.443,Colour_Similarity_Experiment_v1,2020.1.2,MacIntel,60,5ff3a352adaa099f7659f8cc,,,,,,,,,,,,,,,,,,,,FF,,,,,,,,7,0.632,,,,,,,,,,,,,,,,,,,,,,,,,,,,7,30,78,1,0,0,response1disk,9,168,19,-13,1,0,0,rectangle,19,-13,1,0,0,4,0,0,0.002,19,-13,1,0,0,0,5,5,155,1,,,,,,,,,,,,,,,,,,,,,
,,,,,,,,,,,,,,,,,,,,,,,,,,,,,,,,,,,,,,,,,,,5e3f0bbe9907e915e0179f44,5ff3a3f40a5e7fa057a9baed,2021-01-04_23h26.07.443,Colour_Similarity_Experiment_v1,2020.1.2,MacIntel,60,5ff3a352adaa099f7659f8cc,,,,,,,,,,,,,,,,,,,,FF,,,,,,,,7,1.15,,,,,,,,,,,,,,,,,,,,,,,,,,,,6,52,70,1,0,0,response1disk,1,169,21,2,1,0,0,rectangle,21,2,1,0,0,4,2,0,0.002,21,2,1,0,0,0,6,6,5,1,,,,,,,,,,,,,,,,,,,,,
,,,,,,,,,,,,,,,,,,,,,,,,,,,,,,,,,,,,,,,,,,,5e3f0bbe9907e915e0179f44,5ff3a3f40a5e7fa057a9baed,2021-01-04_23h26.07.443,Colour_Similarity_Experiment_v1,2020.1.2,MacIntel,60,5ff3a352adaa099f7659f8cc,,,,,,,,,,,,,,,,,,,,FF,,,,,,,,0,1.152,,,,,,,,,,,,,,,,,,,,,,,,,,,,1,-29,93,1,0,0,response7disk,1,170,-14,9,1,0,0,rectangle,-14,9,1,0,0,4,1,0,0.002,-14,9,1,0,0,0,7,7,151,1,,,,,,,,,,,,,,,,,,,,,
,,,,,,,,,,,,,,,,,,,,,,,,,,,,,,,,,,,,,,,,,,,5e3f0bbe9907e915e0179f44,5ff3a3f40a5e7fa057a9baed,2021-01-04_23h26.07.443,Colour_Similarity_Experiment_v1,2020.1.2,MacIntel,60,5ff3a352adaa099f7659f8cc,,,,,,,,,,,,,,,,,,,,FF,,,,,,,,1,1.351,,,,,,,,,,,,,,,,,,,,,,,,,,,,3,-75,19,1,0,0,response7disk,4,171,-9,0,1,0,0,rectangle,-9,0,1,0,0,4,5,0,0.002,-9,0,1,0,0,0,8,8,110,1,,,,,,,,,,,,,,,,,,,,,
,,,,,,,,,,,,,,,,,,,,,,,,,,,,,,,,,,,,,,,,,,,5e3f0bbe9907e915e0179f44,5ff3a3f40a5e7fa057a9baed,2021-01-04_23h26.07.443,Colour_Similarity_Experiment_v1,2020.1.2,MacIntel,60,5ff3a352adaa099f7659f8cc,,,,,,,,,,,,,,,,,,,,FF,,,,,,,,7,1.836,,,,,,,,,,,,,,,,,,,,,,,,,,,,8,34,82,1,0,0,response1disk,2,172,-15,-3,1,0,0,rectangle,-15,-3,1,0,0,4,7,0,0.002,-15,-3,1,0,0,0,9,9,22,1,,,,,,,,,,,,,,,,,,,,,
,,,,,,,,,,,,,,,,,,,,,,,,,,,,,,,,,,,,,,,,,,,5e3f0bbe9907e915e0179f44,5ff3a3f40a5e7fa057a9baed,2021-01-04_23h26.07.443,Colour_Similarity_Experiment_v1,2020.1.2,MacIntel,60,5ff3a352adaa099f7659f8cc,,,,,,,,,,,,,,,,,,,,PF,,,,,,,,7,0.72,,,,,,,,,,,,,,,,,,,,,,,,,,,,7,32,94,1,0,0,response1disk,9,173,-18,-10,1,0,0,rectangle,-18,-10,1,0,0,4,1,0,0.001,-18,-10,1,0,0,0,10,10,10,1,,,,,,,,,,,,,,,,,,,,,
,,,,,,,,,,,,,,,,,,,,,,,,,,,,,,,,,,,,,,,,,,,5e3f0bbe9907e915e0179f44,5ff3a3f40a5e7fa057a9baed,2021-01-04_23h26.07.443,Colour_Similarity_Experiment_v1,2020.1.2,MacIntel,60,5ff3a352adaa099f7659f8cc,,,,,,,,,,,,,,,,,,,,FF,,,,,,,,7,1.101,,,,,,,,,,,,,,,,,,,,,,,,,,,,5,41,97,1,0,0,response1disk,1,174,-2,-4,1,0,0,rectangle,-2,-4,1,0,0,4,3,0,0.002,-2,-4,1,0,0,0,11,11,131,1,,,,,,,,,,,,,,,,,,,,,
,,,,,,,,,,,,,,,,,,,,,,,,,,,,,,,,,,,,,,,,,,,5e3f0bbe9907e915e0179f44,5ff3a3f40a5e7fa057a9baed,2021-01-04_23h26.07.443,Colour_Similarity_Experiment_v1,2020.1.2,MacIntel,60,5ff3a352adaa099f7659f8cc,,,,,,,,,,,,,,,,,,,,PF,,,,,,,,6,1.67,,,,,,,,,,,,,,,,,,,,,,,,,,,,9,76,41,1,0,0,response1disk,1,175,6,-3,1,0,0,rectangle,6,-3,1,0,0,4,2,0,0.002,6,-3,1,0,0,0,12,12,74,1,,,,,,,,,,,,,,,,,,,,,
,,,,,,,,,,,,,,,,,,,,,,,,,,,,,,,,,,,,,,,,,,,5e3f0bbe9907e915e0179f44,5ff3a3f40a5e7fa057a9baed,2021-01-04_23h26.07.443,Colour_Similarity_Experiment_v1,2020.1.2,MacIntel,60,5ff3a352adaa099f7659f8cc,,,,,,,,,,,,,,,,,,,,PF,,,,,,,,7,0.884,,,,,,,,,,,,,,,,,,,,,,,,,,,,1,24,60,1,0,0,response1disk,4,176,11,-3,1,0,0,rectangle,11,-3,1,0,0,4,6,0,0.002,11,-3,1,0,0,0,13,13,139,1,,,,,,,,,,,,,,,,,,,,,
,,,,,,,,,,,,,,,,,,,,,,,,,,,,,,,,,,,,,,,,,,,5e3f0bbe9907e915e0179f44,5ff3a3f40a5e7fa057a9baed,2021-01-04_23h26.07.443,Colour_Similarity_Experiment_v1,2020.1.2,MacIntel,60,5ff3a352adaa099f7659f8cc,,,,,,,,,,,,,,,,,,,,FF,,,,,,,,7,0.953,,,,,,,,,,,,,,,,,,,,,,,,,,,,4,46,90,1,0,0,response1disk,8,177,19,-2,1,0,0,rectangle,19,-2,1,0,0,4,0,0,0.002,19,-2,1,0,0,0,14,14,35,1,,,,,,,,,,,,,,,,,,,,,
,,,,,,,,,,,,,,,,,,,,,,,,,,,,,,,,,,,,,,,,,,,5e3f0bbe9907e915e0179f44,5ff3a3f40a5e7fa057a9baed,2021-01-04_23h26.07.443,Colour_Similarity_Experiment_v1,2020.1.2,MacIntel,60,5ff3a352adaa099f7659f8cc,,,,,,,,,,,,,,,,,,,,PF,,,,,,,,7,1.887,,,,,,,,,,,,,,,,,,,,,,,,,,,,4,39,81,1,0,0,response1disk,8,178,-10,-7,1,0,0,rectangle,-10,-7,1,0,0,4,2,0,0.002,-10,-7,1,0,0,0,15,15,124,1,,,,,,,,,,,,,,,,,,,,,
,,,,,,,,,,,,,,,,,,,,,,,,,,,,,,,,,,,,,,,,,,,5e3f0bbe9907e915e0179f44,5ff3a3f40a5e7fa057a9baed,2021-01-04_23h26.07.443,Colour_Similarity_Experiment_v1,2020.1.2,MacIntel,60,5ff3a352adaa099f7659f8cc,,,,,,,,,,,,,,,,,,,,PF,,,,,,,,3,2.12,,,,,,,,,,,,,,,,,,,,,,,,,,,,7,-37,-58,1,0,0,response5disk,6,179,-24,-15,1,0,0,rectangle,-24,-15,1,0,0,4,0,0,0.002,-24,-15,1,0,0,0,16,16,29,1,,,,,,,,,,,,,,,,,,,,,
,,,,,,,,,,,,,,,,,,,,,,,,,,,,,,,,,,,,,,,,,,,5e3f0bbe9907e915e0179f44,5ff3a3f40a5e7fa057a9baed,2021-01-04_23h26.07.443,Colour_Similarity_Experiment_v1,2020.1.2,MacIntel,60,5ff3a352adaa099f7659f8cc,,,,,,,,,,,,,,,,,,,,PF,,,,,,,,7,1.321,,,,,,,,,,,,,,,,,,,,,,,,,,,,6,36,78,1,0,0,response1disk,9,180,10,1,1,0,0,rectangle,10,1,1,0,0,4,7,0,0.002,10,1,1,0,0,0,17,17,45,1,,,,,,,,,,,,,,,,,,,,,
,,,,,,,,,,,,,,,,,,,,,,,,,,,,,,,,,,,,,,,,,,,5e3f0bbe9907e915e0179f44,5ff3a3f40a5e7fa057a9baed,2021-01-04_23h26.07.443,Colour_Similarity_Experiment_v1,2020.1.2,MacIntel,60,5ff3a352adaa099f7659f8cc,,,,,,,,,,,,,,,,,,,,FF,,,,,,,,7,0.908,,,,,,,,,,,,,,,,,,,,,,,,,,,,3,45,87,1,0,0,response1disk,7,181,-4,1,1,0,0,rectangle,-4,1,1,0,0,4,6,0,0.002,-4,1,1,0,0,0,18,18,118,1,,,,,,,,,,,,,,,,,,,,,
,,,,,,,,,,,,,,,,,,,,,,,,,,,,,,,,,,,,,,,,,,,5e3f0bbe9907e915e0179f44,5ff3a3f40a5e7fa057a9baed,2021-01-04_23h26.07.443,Colour_Similarity_Experiment_v1,2020.1.2,MacIntel,60,5ff3a352adaa099f7659f8cc,,,,,,,,,,,,,,,,,,,,FF,,,,,,,,6,1.398,,,,,,,,,,,,,,,,,,,,,,,,,,,,5,76,26,1,0,0,response1disk,6,182,16,-5,1,0,0,rectangle,16,-5,1,0,0,4,5,0,0.004,16,-5,1,0,0,0,19,19,12,1,,,,,,,,,,,,,,,,,,,,,
,,,,,,,,,,,,,,,,,,,,,,,,,,,,,,,,,,,,,,,,,,,5e3f0bbe9907e915e0179f44,5ff3a3f40a5e7fa057a9baed,2021-01-04_23h26.07.443,Colour_Similarity_Experiment_v1,2020.1.2,MacIntel,60,5ff3a352adaa099f7659f8cc,,,,,,,,,,,,,,,,,,,,FF,,,,,,,,0,1.039,,,,,,,,,,,,,,,,,,,,,,,,,,,,4,-39,83,1,0,0,response7disk,4,183,11,-1,1,0,0,rectangle,11,-1,1,0,0,4,1,0,0.002,11,-1,1,0,0,0,20,20,84,1,,,,,,,,,,,,,,,,,,,,,
,,,,,,,,,,,,,,,,,,,,,,,,,,,,,,,,,,,,,,,,,,,5e3f0bbe9907e915e0179f44,5ff3a3f40a5e7fa057a9baed,2021-01-04_23h26.07.443,Colour_Similarity_Experiment_v1,2020.1.2,MacIntel,60,5ff3a352adaa099f7659f8cc,,,,,,,,,,,,,,,,,,,,PF,,,,,,,,7,0.769,,,,,,,,,,,,,,,,,,,,,,,,,,,,7,51,94,1,0,0,response1disk,3,184,-3,-5,1,0,0,rectangle,-3,-5,1,0,0,4,4,0,0.003,-3,-5,1,0,0,0,21,21,81,1,,,,,,,,,,,,,,,,,,,,,
,,,,,,,,,,,,,,,,,,,,,,,,,,,,,,,,,,,,,,,,,,,5e3f0bbe9907e915e0179f44,5ff3a3f40a5e7fa057a9baed,2021-01-04_23h26.07.443,Colour_Similarity_Experiment_v1,2020.1.2,MacIntel,60,5ff3a352adaa099f7659f8cc,,,,,,,,,,,,,,,,,,,,FF,,,,,,,,7,0.846,,,,,,,,,,,,,,,,,,,,,,,,,,,,7,50,101,1,0,0,response1disk,3,185,12,1,1,0,0,rectangle,12,1,1,0,0,4,6,0,0.004,12,1,1,0,0,0,22,22,73,1,,,,,,,,,,,,,,,,,,,,,
,,,,,,,,,,,,,,,,,,,,,,,,,,,,,,,,,,,,,,,,,,,5e3f0bbe9907e915e0179f44,5ff3a3f40a5e7fa057a9baed,2021-01-04_23h26.07.443,Colour_Similarity_Experiment_v1,2020.1.2,MacIntel,60,5ff3a352adaa099f7659f8cc,,,,,,,,,,,,,,,,,,,,FF,,,,,,,,7,0.635,,,,,,,,,,,,,,,,,,,,,,,,,,,,5,31,62,1,0,0,response1disk,7,186,25,9,1,0,0,rectangle,25,9,1,0,0,4,1,0,0.003,25,9,1,0,0,0,23,23,7,1,,,,,,,,,,,,,,,,,,,,,
,,,,,,,,,,,,,,,,,,,,,,,,,,,,,,,,,,,,,,,,,,,5e3f0bbe9907e915e0179f44,5ff3a3f40a5e7fa057a9baed,2021-01-04_23h26.07.443,Colour_Similarity_Experiment_v1,2020.1.2,MacIntel,60,5ff3a352adaa099f7659f8cc,,,,,,,,,,,,,,,,,,,,PF,,,,,,,,7,0.832,,,,,,,,,,,,,,,,,,,,,,,,,,,,4,33,82,1,0,0,response1disk,1,187,10,5,1,0,0,rectangle,10,5,1,0,0,4,4,0,0.002,10,5,1,0,0,0,24,24,115,1,,,,,,,,,,,,,,,,,,,,,
,,,,,,,,,,,,,,,,,,,,,,,,,,,,,,,,,,,,,,,,,,,5e3f0bbe9907e915e0179f44,5ff3a3f40a5e7fa057a9baed,2021-01-04_23h26.07.443,Colour_Similarity_Experiment_v1,2020.1.2,MacIntel,60,5ff3a352adaa099f7659f8cc,,,,,,,,,,,,,,,,,,,,PF,,,,,,,,3,2.157,,,,,,,,,,,,,,,,,,,,,,,,,,,,5,-45,-92,1,0,0,response5disk,3,188,-7,-3,1,0,0,rectangle,-7,-3,1,0,0,4,4,0,0.002,-7,-3,1,0,0,0,25,25,109,1,,,,,,,,,,,,,,,,,,,,,
,,,,,,,,,,,,,,,,,,,,,,,,,,,,,,,,,,,,,,,,,,,5e3f0bbe9907e915e0179f44,5ff3a3f40a5e7fa057a9baed,2021-01-04_23h26.07.443,Colour_Similarity_Experiment_v1,2020.1.2,MacIntel,60,5ff3a352adaa099f7659f8cc,,,,,,,,,,,,,,,,,,,,FF,,,,,,,,6,1.321,,,,,,,,,,,,,,,,,,,,,,,,,,,,2,72,35,1,0,0,response1disk,1,189,8,3,1,0,0,rectangle,8,3,1,0,0,4,5,0,0.002,8,3,1,0,0,0,26,26,85,1,,,,,,,,,,,,,,,,,,,,,
,,,,,,,,,,,,,,,,,,,,,,,,,,,,,,,,,,,,,,,,,,,5e3f0bbe9907e915e0179f44,5ff3a3f40a5e7fa057a9baed,2021-01-04_23h26.07.443,Colour_Similarity_Experiment_v1,2020.1.2,MacIntel,60,5ff3a352adaa099f7659f8cc,,,,,,,,,,,,,,,,,,,,FF,,,,,,,,7,0.768,,,,,,,,,,,,,,,,,,,,,,,,,,,,3,30,75,1,0,0,response1disk,6,190,6,-5,1,0,0,rectangle,6,-5,1,0,0,4,4,0,0.002,6,-5,1,0,0,0,27,27,95,1,,,,,,,,,,,,,,,,,,,,,
,,,,,,,,,,,,,,,,,,,,,,,,,,,,,,,,,,,,,,,,,,,5e3f0bbe9907e915e0179f44,5ff3a3f40a5e7fa057a9baed,2021-01-04_23h26.07.443,Colour_Similarity_Experiment_v1,2020.1.2,MacIntel,60,5ff3a352adaa099f7659f8cc,,,,,,,,,,,,,,,,,,,,FF,,,,,,,,7,0.769,,,,,,,,,,,,,,,,,,,,,,,,,,,,3,45,91,1,0,0,response1disk,1,191,14,-5,1,0,0,rectangle,14,-5,1,0,0,4,2,0,0.002,14,-5,1,0,0,0,28,28,125,1,,,,,,,,,,,,,,,,,,,,,
,,,,,,,,,,,,,,,,,,,,,,,,,,,,,,,,,,,,,,,,,,,5e3f0bbe9907e915e0179f44,5ff3a3f40a5e7fa057a9baed,2021-01-04_23h26.07.443,Colour_Similarity_Experiment_v1,2020.1.2,MacIntel,60,5ff3a352adaa099f7659f8cc,,,,,,,,,,,,,,,,,,,,PF,,,,,,,,7,0.652,,,,,,,,,,,,,,,,,,,,,,,,,,,,2,44,90,1,0,0,response1disk,7,192,12,4,1,0,0,rectangle,12,4,1,0,0,4,0,0,0.001,12,4,1,0,0,0,29,29,107,1,,,,,,,,,,,,,,,,,,,,,
,,,,,,,,,,,,,,,,,,,,,,,,,,,,,,,,,,,,,,,,,,,5e3f0bbe9907e915e0179f44,5ff3a3f40a5e7fa057a9baed,2021-01-04_23h26.07.443,Colour_Similarity_Experiment_v1,2020.1.2,MacIntel,60,5ff3a352adaa099f7659f8cc,,,,,,,,,,,,,,,,,,,,FF,,,,,,,,7,0.735,,,,,,,,,,,,,,,,,,,,,,,,,,,,1,36,85,1,0,0,response1disk,5,193,5,-4,1,0,0,rectangle,5,-4,1,0,0,4,4,0,0.001,5,-4,1,0,0,0,30,30,82,1,,,,,,,,,,,,,,,,,,,,,
,,,,,,,,,,,,,,,,,,,,,,,,,,,,,,,,,,,,,,,,,,,5e3f0bbe9907e915e0179f44,5ff3a3f40a5e7fa057a9baed,2021-01-04_23h26.07.443,Colour_Similarity_Experiment_v1,2020.1.2,MacIntel,60,5ff3a352adaa099f7659f8cc,,,,,,,,,,,,,,,,,,,,FF,,,,,,,,6,1.102,,,,,,,,,,,,,,,,,,,,,,,,,,,,9,96,45,1,0,0,response1disk,1,194,18,-2,1,0,0,rectangle,18,-2,1,0,0,4,2,0,0.003,18,-2,1,0,0,0,31,31,111,1,,,,,,,,,,,,,,,,,,,,,
,,,,,,,,,,,,,,,,,,,,,,,,,,,,,,,,,,,,,,,,,,,5e3f0bbe9907e915e0179f44,5ff3a3f40a5e7fa057a9baed,2021-01-04_23h26.07.443,Colour_Similarity_Experiment_v1,2020.1.2,MacIntel,60,5ff3a352adaa099f7659f8cc,,,,,,,,,,,,,,,,,,,,PF,,,,,,,,7,0.901,,,,,,,,,,,,,,,,,,,,,,,,,,,,7,45,84,1,0,0,response1disk,8,195,22,-1,1,0,0,rectangle,22,-1,1,0,0,4,6,0,0.002,22,-1,1,0,0,0,32,32,140,1,,,,,,,,,,,,,,,,,,,,,
,,,,,,,,,,,,,,,,,,,,,,,,,,,,,,,,,,,,,,,,,,,5e3f0bbe9907e915e0179f44,5ff3a3f40a5e7fa057a9baed,2021-01-04_23h26.07.443,Colour_Similarity_Experiment_v1,2020.1.2,MacIntel,60,5ff3a352adaa099f7659f8cc,,,,,,,,,,,,,,,,,,,,FF,,,,,,,,7,0.755,,,,,,,,,,,,,,,,,,,,,,,,,,,,4,38,77,1,0,0,response1disk,1,196,15,-1,1,0,0,rectangle,15,-1,1,0,0,4,0,0,0.002,15,-1,1,0,0,0,33,33,102,1,,,,,,,,,,,,,,,,,,,,,
,,,,,,,,,,,,,,,,,,,,,,,,,,,,,,,,,,,,,,,,,,,5e3f0bbe9907e915e0179f44,5ff3a3f40a5e7fa057a9baed,2021-01-04_23h26.07.443,Colour_Similarity_Experiment_v1,2020.1.2,MacIntel,60,5ff3a352adaa099f7659f8cc,,,,,,,,,,,,,,,,,,,,FF,,,,,,,,7,0.887,,,,,,,,,,,,,,,,,,,,,,,,,,,,2,43,80,1,0,0,response1disk,6,197,8,-16,1,0,0,rectangle,8,-16,1,0,0,4,7,0,0.003,8,-16,1,0,0,0,34,34,40,1,,,,,,,,,,,,,,,,,,,,,
,,,,,,,,,,,,,,,,,,,,,,,,,,,,,,,,,,,,,,,,,,,5e3f0bbe9907e915e0179f44,5ff3a3f40a5e7fa057a9baed,2021-01-04_23h26.07.443,Colour_Similarity_Experiment_v1,2020.1.2,MacIntel,60,5ff3a352adaa099f7659f8cc,,,,,,,,,,,,,,,,,,,,FF,,,,,,,,6,1.168,,,,,,,,,,,,,,,,,,,,,,,,,,,,7,91,37,1,0,0,response1disk,8,198,13,-3,1,0,0,rectangle,65,-35,1,0,0,5,5,1,1.685,19,8,1,0,0,0,35,35,97,1,response3disk_3,rectangle,,,,,,,,,,,,,,,,,,,
,,,,,,,,,,,,,,,,,,,,,,,,,,,,,,,,,,,,,,,,,,,5e3f0bbe9907e915e0179f44,5ff3a3f40a5e7fa057a9baed,2021-01-04_23h26.07.443,Colour_Similarity_Experiment_v1,2020.1.2,MacIntel,60,5ff3a352adaa099f7659f8cc,,,,,,,,,,,,,,,,,,,,FF,,,,,,,,5,2.408,,,,,,,,,,,,,,,,,,,,,,,,,,,,6,85,-46,1,0,0,response3disk,5,199,-24,5,1,0,0,rectangle,-24,5,1,0,0,5,0,0,0.003,-24,5,1,0,0,0,36,36,126,1,,,,,,,,,,,,,,,,,,,,,
,,,,,,,,,,,,,,,,,,,,,,,,,,,,,,,,,,,,,,,,,,,5e3f0bbe9907e915e0179f44,5ff3a3f40a5e7fa057a9baed,2021-01-04_23h26.07.443,Colour_Similarity_Experiment_v1,2020.1.2,MacIntel,60,5ff3a352adaa099f7659f8cc,,,,,,,,,,,,,,,,,,,,FF,,,,,,,,7,0.869,,,,,,,,,,,,,,,,,,,,,,,,,,,,2,26,77,1,0,0,response1disk,4,200,21,5,1,0,0,rectangle,21,5,1,0,0,5,0,0,0.002,21,5,1,0,0,0,37,37,145,1,,,,,,,,,,,,,,,,,,,,,
,,,,,,,,,,,,,,,,,,,,,,,,,,,,,,,,,,,,,,,,,,,5e3f0bbe9907e915e0179f44,5ff3a3f40a5e7fa057a9baed,2021-01-04_23h26.07.443,Colour_Similarity_Experiment_v1,2020.1.2,MacIntel,60,5ff3a352adaa099f7659f8cc,,,,,,,,,,,,,,,,,,,,FF,,,,,,,,6,1.053,,,,,,,,,,,,,,,,,,,,,,,,,,,,1,65,37,1,0,0,response1disk,2,201,6,-10,1,0,0,rectangle,6,-10,1,0,0,5,0,0,0.002,6,-10,1,0,0,0,38,38,2,1,,,,,,,,,,,,,,,,,,,,,
,,,,,,,,,,,,,,,,,,,,,,,,,,,,,,,,,,,,,,,,,,,5e3f0bbe9907e915e0179f44,5ff3a3f40a5e7fa057a9baed,2021-01-04_23h26.07.443,Colour_Similarity_Experiment_v1,2020.1.2,MacIntel,60,5ff3a352adaa099f7659f8cc,,,,,,,,,,,,,,,,,,,,FF,,,,,,,,7,0.837,,,,,,,,,,,,,,,,,,,,,,,,,,,,9,41,85,1,0,0,response1disk,6,202,28,-4,1,0,0,rectangle,28,-4,1,0,0,5,7,0,0.003,28,-4,1,0,0,0,39,39,117,1,,,,,,,,,,,,,,,,,,,,,
,,,,,,,,,,,,,,,,,,,,,,,,,,,,,,,,,,,,,,,,,,,5e3f0bbe9907e915e0179f44,5ff3a3f40a5e7fa057a9baed,2021-01-04_23h26.07.443,Colour_Similarity_Experiment_v1,2020.1.2,MacIntel,60,5ff3a352adaa099f7659f8cc,,,,,,,,,,,,,,,,,,,,FF,,,,,,,,7,1.753,,,,,,,,,,,,,,,,,,,,,,,,,,,,4,31,77,1,0,0,response1disk,7,203,19,8,1,0,0,rectangle,19,8,1,0,0,5,6,0,0.002,19,8,1,0,0,0,40,40,87,1,,,,,,,,,,,,,,,,,,,,,
,,,,,,,,,,,,,,,,,,,,,,,,,,,,,,,,,,,,,,,,,,,5e3f0bbe9907e915e0179f44,5ff3a3f40a5e7fa057a9baed,2021-01-04_23h26.07.443,Colour_Similarity_Experiment_v1,2020.1.2,MacIntel,60,5ff3a352adaa099f7659f8cc,,,,,,,,,,,,,,,,,,,,FF,,,,,,,,1,1.471,,,,,,,,,,,,,,,,,,,,,,,,,,,,8,-71,46,1,0,0,response7disk,8,204,-17,-2,1,0,0,rectangle,-17,-2,1,0,0,5,2,0,0.002,-17,-2,1,0,0,0,41,41,48,1,,,,,,,,,,,,,,,,,,,,,
,,,,,,,,,,,,,,,,,,,,,,,,,,,,,,,,,,,,,,,,,,,5e3f0bbe9907e915e0179f44,5ff3a3f40a5e7fa057a9baed,2021-01-04_23h26.07.443,Colour_Similarity_Experiment_v1,2020.1.2,MacIntel,60,5ff3a352adaa099f7659f8cc,,,,,,,,,,,,,,,,,,,,FF,,,,,,,,2,2.255,,,,,,,,,,,,,,,,,,,,,,,,,,,,7,-76,-45,1,0,0,response5disk,6,205,-25,-11,1,0,0,rectangle,-25,-11,1,0,0,5,4,0,0.002,-25,-11,1,0,0,0,42,42,31,1,,,,,,,,,,,,,,,,,,,,,
,,,,,,,,,,,,,,,,,,,,,,,,,,,,,,,,,,,,,,,,,,,5e3f0bbe9907e915e0179f44,5ff3a3f40a5e7fa057a9baed,2021-01-04_23h26.07.443,Colour_Similarity_Experiment_v1,2020.1.2,MacIntel,60,5ff3a352adaa099f7659f8cc,,,,,,,,,,,,,,,,,,,,PF,,,,,,,,7,1.608,,,,,,,,,,,,,,,,,,,,,,,,,,,,2,21,70,1,0,0,response1disk,5,206,-4,-13,1,0,0,rectangle,-4,-13,1,0,0,5,2,0,0.002,-4,-13,1,0,0,0,43,43,147,1,,,,,,,,,,,,,,,,,,,,,
,,,,,,,,,,,,,,,,,,,,,,,,,,,,,,,,,,,,,,,,,,,5e3f0bbe9907e915e0179f44,5ff3a3f40a5e7fa057a9baed,2021-01-04_23h26.07.443,Colour_Similarity_Experiment_v1,2020.1.2,MacIntel,60,5ff3a352adaa099f7659f8cc,,,,,,,,,,,,,,,,,,,,FF,,,,,,,,0,0.952,,,,,,,,,,,,,,,,,,,,,,,,,,,,9,-55,81,1,0,0,response7disk,9,207,-11,1,1,0,0,rectangle,-11,1,1,0,0,5,1,0,0.002,-11,1,1,0,0,0,44,44,17,1,,,,,,,,,,,,,,,,,,,,,
,,,,,,,,,,,,,,,,,,,,,,,,,,,,,,,,,,,,,,,,,,,5e3f0bbe9907e915e0179f44,5ff3a3f40a5e7fa057a9baed,2021-01-04_23h26.07.443,Colour_Similarity_Experiment_v1,2020.1.2,MacIntel,60,5ff3a352adaa099f7659f8cc,,,,,,,,,,,,,,,,,,,,FF,,,,,,,,6,1.47,,,,,,,,,,,,,,,,,,,,,,,,,,,,6,97,35,1,0,0,response1disk,8,208,4,-5,1,0,0,rectangle,4,-5,1,0,0,5,2,0,0.001,4,-5,1,0,0,0,45,45,133,1,,,,,,,,,,,,,,,,,,,,,
,,,,,,,,,,,,,,,,,,,,,,,,,,,,,,,,,,,,,,,,,,,5e3f0bbe9907e915e0179f44,5ff3a3f40a5e7fa057a9baed,2021-01-04_23h26.07.443,Colour_Similarity_Experiment_v1,2020.1.2,MacIntel,60,5ff3a352adaa099f7659f8cc,,,,,,,,,,,,,,,,,,,,FF,,,,,,,,7,0.852,,,,,,,,,,,,,,,,,,,,,,,,,,,,9,36,86,1,0,0,response1disk,5,209,13,0,1,0,0,rectangle,13,0,1,0,0,5,3,0,0.002,13,0,1,0,0,0,46,46,128,1,,,,,,,,,,,,,,,,,,,,,
,,,,,,,,,,,,,,,,,,,,,,,,,,,,,,,,,,,,,,,,,,,5e3f0bbe9907e915e0179f44,5ff3a3f40a5e7fa057a9baed,2021-01-04_23h26.07.443,Colour_Similarity_Experiment_v1,2020.1.2,MacIntel,60,5ff3a352adaa099f7659f8cc,,,,,,,,,,,,,,,,,,,,FF,,,,,,,,0,0.92,,,,,,,,,,,,,,,,,,,,,,,,,,,,3,-40,69,1,0,0,response7disk,3,210,-3,2,1,0,0,rectangle,-3,2,1,0,0,5,2,0,0.001,-3,2,1,0,0,0,47,47,68,1,,,,,,,,,,,,,,,,,,,,,
,,,,,,,,,,,,,,,,,,,,,,,,,,,,,,,,,,,,,,,,,,,5e3f0bbe9907e915e0179f44,5ff3a3f40a5e7fa057a9baed,2021-01-04_23h26.07.443,Colour_Similarity_Experiment_v1,2020.1.2,MacIntel,60,5ff3a352adaa099f7659f8cc,,,,,,,,,,,,,,,,,,,,FF,,,,,,,,0,0.853,,,,,,,,,,,,,,,,,,,,,,,,,,,,4,-33,81,1,0,0,response7disk,3,211,-8,10,1,0,0,rectangle,-8,10,1,0,0,5,1,0,0.002,-8,10,1,0,0,0,48,48,77,1,,,,,,,,,,,,,,,,,,,,,
,,,,,,,,,,,,,,,,,,,,,,,,,,,,,,,,,,,,,,,,,,,5e3f0bbe9907e915e0179f44,5ff3a3f40a5e7fa057a9baed,2021-01-04_23h26.07.443,Colour_Similarity_Experiment_v1,2020.1.2,MacIntel,60,5ff3a352adaa099f7659f8cc,,,,,,,,,,,,,,,,,,,,PF,,,,,,,,6,2.754,,,,,,,,,,,,,,,,,,,,,,,,,,,,4,93,41,1,0,0,response1disk,6,212,19,-12,1,0,0,rectangle,19,-12,1,0,0,5,5,0,0.002,19,-12,1,0,0,0,49,49,120,1,,,,,,,,,,,,,,,,,,,,,
,,,,,,,,,,,,,,,,,,,,,,,,,,,,,,,,,,,,,,,,,,,5e3f0bbe9907e915e0179f44,5ff3a3f40a5e7fa057a9baed,2021-01-04_23h26.07.443,Colour_Similarity_Experiment_v1,2020.1.2,MacIntel,60,5ff3a352adaa099f7659f8cc,,,,,,,,,,,,,,,,,,,,FF,,,,,,,,7,0.887,,,,,,,,,,,,,,,,,,,,,,,,,,,,1,27,53,1,0,0,response1disk,6,213,17,7,1,0,0,rectangle,17,7,1,0,0,5,4,0,0.003,17,7,1,0,0,0,50,50,58,1,,,,,,,,,,,,,,,,,,,,,
,,,,,,,,,,,,,,,,,,,,,,,,,,,,,,,,,,,,,,,,,,,5e3f0bbe9907e915e0179f44,5ff3a3f40a5e7fa057a9baed,2021-01-04_23h26.07.443,Colour_Similarity_Experiment_v1,2020.1.2,MacIntel,60,5ff3a352adaa099f7659f8cc,,,,,,,,,,,,,,,,,,,,PF,,,,,,,,0,0.983,,,,,,,,,,,,,,,,,,,,,,,,,,,,4,-40,93,1,0,0,response7disk,4,214,-29,3,1,0,0,rectangle,-29,3,1,0,0,5,3,0,0.003,-29,3,1,0,0,0,51,51,70,1,,,,,,,,,,,,,,,,,,,,,
,,,,,,,,,,,,,,,,,,,,,,,,,,,,,,,,,,,,,,,,,,,5e3f0bbe9907e915e0179f44,5ff3a3f40a5e7fa057a9baed,2021-01-04_23h26.07.443,Colour_Similarity_Experiment_v1,2020.1.2,MacIntel,60,5ff3a352adaa099f7659f8cc,,,,,,,,,,,,,,,,,,,,FF,,,,,,,,7,0.802,,,,,,,,,,,,,,,,,,,,,,,,,,,,6,56,105,1,0,0,response1disk,9,215,23,4,1,0,0,rectangle,43,92,1,0,0,7,7,1,1.62,0,-6,1,0,0,0,52,52,160,1,response1disk_3,rectangle,,,,,,,,,,,,,,,,,,,
,,,,,,,,,,,,,,,,,,,,,,,,,,,,,,,,,,,,,,,,,,,5e3f0bbe9907e915e0179f44,5ff3a3f40a5e7fa057a9baed,2021-01-04_23h26.07.443,Colour_Similarity_Experiment_v1,2020.1.2,MacIntel,60,5ff3a352adaa099f7659f8cc,,,,,,,,,,,,,,,,,,,,PF,,,,,,,,0,4.612,,,,,,,,,,,,,,,,,,,,,,,,,,,,9,-43,66,1,0,0,response7disk,6,216,-4,-7,1,0,0,rectangle,-4,-7,1,0,0,7,6,0,0.001,-4,-7,1,0,0,0,53,53,148,1,,,,,,,,,,,,,,,,,,,,,
,,,,,,,,,,,,,,,,,,,,,,,,,,,,,,,,,,,,,,,,,,,5e3f0bbe9907e915e0179f44,5ff3a3f40a5e7fa057a9baed,2021-01-04_23h26.07.443,Colour_Similarity_Experiment_v1,2020.1.2,MacIntel,60,5ff3a352adaa099f7659f8cc,,,,,,,,,,,,,,,,,,,,FF,,,,,,,,6,1.052,,,,,,,,,,,,,,,,,,,,,,,,,,,,5,103,42,1,0,0,response1disk,4,217,24,4,1,0,0,rectangle,24,4,1,0,0,7,2,0,0.002,24,4,1,0,0,0,54,54,8,1,,,,,,,,,,,,,,,,,,,,,
,,,,,,,,,,,,,,,,,,,,,,,,,,,,,,,,,,,,,,,,,,,5e3f0bbe9907e915e0179f44,5ff3a3f40a5e7fa057a9baed,2021-01-04_23h26.07.443,Colour_Similarity_Experiment_v1,2020.1.2,MacIntel,60,5ff3a352adaa099f7659f8cc,,,,,,,,,,,,,,,,,,,,FF,,,,,,,,6,0.95,,,,,,,,,,,,,,,,,,,,,,,,,,,,6,79,33,1,0,0,response1disk,7,218,12,-6,1,0,0,rectangle,12,-6,1,0,0,7,1,0,0.002,12,-6,1,0,0,0,55,55,18,1,,,,,,,,,,,,,,,,,,,,,
,,,,,,,,,,,,,,,,,,,,,,,,,,,,,,,,,,,,,,,,,,,5e3f0bbe9907e915e0179f44,5ff3a3f40a5e7fa057a9baed,2021-01-04_23h26.07.443,Colour_Similarity_Experiment_v1,2020.1.2,MacIntel,60,5ff3a352adaa099f7659f8cc,,,,,,,,,,,,,,,,,,,,PF,,,,,,,,6,1.242,,,,,,,,,,,,,,,,,,,,,,,,,,,,8,84,41,1,0,0,response1disk,9,219,-6,-2,1,0,0,rectangle,-6,-2,1,0,0,7,0,0,0.002,-6,-2,1,0,0,0,56,56,42,1,,,,,,,,,,,,,,,,,,,,,
,,,,,,,,,,,,,,,,,,,,,,,,,,,,,,,,,,,,,,,,,,,5e3f0bbe9907e915e0179f44,5ff3a3f40a5e7fa057a9baed,2021-01-04_23h26.07.443,Colour_Similarity_Experiment_v1,2020.1.2,MacIntel,60,5ff3a352adaa099f7659f8cc,,,,,,,,,,,,,,,,,,,,PF,,,,,,,,7,0.836,,,,,,,,,,,,,,,,,,,,,,,,,,,,5,24,67,1,0,0,response1disk,7,220,2,-4,1,0,0,rectangle,2,-4,1,0,0,7,3,0,0.002,2,-4,1,0,0,0,57,57,146,1,,,,,,,,,,,,,,,,,,,,,
,,,,,,,,,,,,,,,,,,,,,,,,,,,,,,,,,,,,,,,,,,,5e3f0bbe9907e915e0179f44,5ff3a3f40a5e7fa057a9baed,2021-01-04_23h26.07.443,Colour_Similarity_Experiment_v1,2020.1.2,MacIntel,60,5ff3a352adaa099f7659f8cc,,,,,,,,,,,,,,,,,,,,FF,,,,,,,,7,1.122,,,,,,,,,,,,,,,,,,,,,,,,,,,,8,29,81,1,0,0,response1disk,6,221,16,3,1,0,0,rectangle,16,3,1,0,0,7,2,0,0.002,16,3,1,0,0,0,58,58,37,1,,,,,,,,,,,,,,,,,,,,,
,,,,,,,,,,,,,,,,,,,,,,,,,,,,,,,,,,,,,,,,,,,5e3f0bbe9907e915e0179f44,5ff3a3f40a5e7fa057a9baed,2021-01-04_23h26.07.443,Colour_Similarity_Experiment_v1,2020.1.2,MacIntel,60,5ff3a352adaa099f7659f8cc,,,,,,,,,,,,,,,,,,,,PF,,,,,,,,7,0.801,,,,,,,,,,,,,,,,,,,,,,,,,,,,5,35,84,1,0,0,response1disk,6,222,-6,15,1,0,0,rectangle,-6,15,1,0,0,7,6,0,0.003,-6,15,1,0,0,0,59,59,103,1,,,,,,,,,,,,,,,,,,,,,
,,,,,,,,,,,,,,,,,,,,,,,,,,,,,,,,,,,,,,,,,,,5e3f0bbe9907e915e0179f44,5ff3a3f40a5e7fa057a9baed,2021-01-04_23h26.07.443,Colour_Similarity_Experiment_v1,2020.1.2,MacIntel,60,5ff3a352adaa099f7659f8cc,,,,,,,,,,,,,,,,,,,,FF,,,,,,,,0,1.004,,,,,,,,,,,,,,,,,,,,,,,,,,,,7,-55,81,1,0,0,response7disk,7,223,-18,9,1,0,0,rectangle,-18,9,1,0,0,7,3,0,0.002,-18,9,1,0,0,0,60,60,34,1,,,,,,,,,,,,,,,,,,,,,
,,,,,,,,,,,,,,,,,,,,,,,,,,,,,,,,,,,,,,,,,,,5e3f0bbe9907e915e0179f44,5ff3a3f40a5e7fa057a9baed,2021-01-04_23h26.07.443,Colour_Similarity_Experiment_v1,2020.1.2,MacIntel,60,5ff3a352adaa099f7659f8cc,,,,,,,,,,,,,,,,,,,,PF,,,,,,,,1,1.271,,,,,,,,,,,,,,,,,,,,,,,,,,,,3,-90,35,1,0,0,response7disk,4,224,3,-10,1,0,0,rectangle,3,-10,1,0,0,7,6,0,0.003,3,-10,1,0,0,0,61,61,30,1,,,,,,,,,,,,,,,,,,,,,
,,,,,,,,,,,,,,,,,,,,,,,,,,,,,,,,,,,,,,,,,,,5e3f0bbe9907e915e0179f44,5ff3a3f40a5e7fa057a9baed,2021-01-04_23h26.07.443,Colour_Similarity_Experiment_v1,2020.1.2,MacIntel,60,5ff3a352adaa099f7659f8cc,,,,,,,,,,,,,,,,,,,,PF,,,,,,,,5,1.738,,,,,,,,,,,,,,,,,,,,,,,,,,,,9,96,-39,1,0,0,response3disk,8,225,-10,5,1,0,0,rectangle,-10,5,1,0,0,7,0,0,0.003,-10,5,1,0,0,0,62,62,67,1,,,,,,,,,,,,,,,,,,,,,
,,,,,,,,,,,,,,,,,,,,,,,,,,,,,,,,,,,,,,,,,,,5e3f0bbe9907e915e0179f44,5ff3a3f40a5e7fa057a9baed,2021-01-04_23h26.07.443,Colour_Similarity_Experiment_v1,2020.1.2,MacIntel,60,5ff3a352adaa099f7659f8cc,,,,,,,,,,,,,,,,,,,,PF,,,,,,,,7,0.92,,,,,,,,,,,,,,,,,,,,,,,,,,,,3,26,69,1,0,0,response1disk,1,226,22,10,1,0,0,rectangle,22,10,1,0,0,7,2,0,0.003,22,10,1,0,0,0,63,63,96,1,,,,,,,,,,,,,,,,,,,,,
,,,,,,,,,,,,,,,,,,,,,,,,,,,,,,,,,,,,,,,,,,,5e3f0bbe9907e915e0179f44,5ff3a3f40a5e7fa057a9baed,2021-01-04_23h26.07.443,Colour_Similarity_Experiment_v1,2020.1.2,MacIntel,60,5ff3a352adaa099f7659f8cc,,,,,,,,,,,,,,,,,,,,PF,,,,,,,,6,1.32,,,,,,,,,,,,,,,,,,,,,,,,,,,,4,79,30,1,0,0,response1disk,5,227,-11,7,1,0,0,rectangle,-11,7,1,0,0,7,6,0,0.003,-11,7,1,0,0,0,64,64,49,1,,,,,,,,,,,,,,,,,,,,,
,,,,,,,,,,,,,,,,,,,,,,,,,,,,,,,,,,,,,,,,,,,5e3f0bbe9907e915e0179f44,5ff3a3f40a5e7fa057a9baed,2021-01-04_23h26.07.443,Colour_Similarity_Experiment_v1,2020.1.2,MacIntel,60,5ff3a352adaa099f7659f8cc,,,,,,,,,,,,,,,,,,,,PF,,,,,,,,7,2.782,,,,,,,,,,,,,,,,,,,,,,,,,,,,7,47,92,1,0,0,response1disk,5,228,16,-6,1,0,0,rectangle,16,-6,1,0,0,7,5,0,0.003,16,-6,1,0,0,0,65,65,92,1,,,,,,,,,,,,,,,,,,,,,
,,,,,,,,,,,,,,,,,,,,,,,,,,,,,,,,,,,,,,,,,,,5e3f0bbe9907e915e0179f44,5ff3a3f40a5e7fa057a9baed,2021-01-04_23h26.07.443,Colour_Similarity_Experiment_v1,2020.1.2,MacIntel,60,5ff3a352adaa099f7659f8cc,,,,,,,,,,,,,,,,,,,,PF,,,,,,,,7,1.256,,,,,,,,,,,,,,,,,,,,,,,,,,,,9,32,101,1,0,0,response1disk,2,229,-3,2,1,0,0,rectangle,-3,2,1,0,0,7,0,0,0.003,-3,2,1,0,0,0,66,66,157,1,,,,,,,,,,,,,,,,,,,,,
,,,,,,,,,,,,,,,,,,,,,,,,,,,,,,,,,,,,,,,,,,,5e3f0bbe9907e915e0179f44,5ff3a3f40a5e7fa057a9baed,2021-01-04_23h26.07.443,Colour_Similarity_Experiment_v1,2020.1.2,MacIntel,60,5ff3a352adaa099f7659f8cc,,,,,,,,,,,,,,,,,,,,FF,,,,,,,,7,0.836,,,,,,,,,,,,,,,,,,,,,,,,,,,,7,20,54,1,0,0,response1disk,1,230,16,3,1,0,0,rectangle,16,3,1,0,0,7,6,0,0.002,16,3,1,0,0,0,67,67,132,1,,,,,,,,,,,,,,,,,,,,,
,,,,,,,,,,,,,,,,,,,,,,,,,,,,,,,,,,,,,,,,,,,5e3f0bbe9907e915e0179f44,5ff3a3f40a5e7fa057a9baed,2021-01-04_23h26.07.443,Colour_Similarity_Experiment_v1,2020.1.2,MacIntel,60,5ff3a352adaa099f7659f8cc,,,,,,,,,,,,,,,,,,,,PF,,,,,,,,7,0.785,,,,,,,,,,,,,,,,,,,,,,,,,,,,5,45,73,1,0,0,response1disk,1,231,15,1,1,0,0,rectangle,-81,43,1,0,0,1,1,1,1.823,-9,-7,1,0,0,0,68,68,159,1,response7disk_3,rectangle,,,,,,,,,,,,,,,,,,,
,,,,,,,,,,,,,,,,,,,,,,,,,,,,,,,,,,,,,,,,,,,5e3f0bbe9907e915e0179f44,5ff3a3f40a5e7fa057a9baed,2021-01-04_23h26.07.443,Colour_Similarity_Experiment_v1,2020.1.2,MacIntel,60,5ff3a352adaa099f7659f8cc,,,,,,,,,,,,,,,,,,,,PF,,,,,,,,7,0.915,,,,,,,,,,,,,,,,,,,,,,,,,,,,8,30,79,1,0,0,response1disk,1,232,9,4,1,0,0,rectangle,9,4,1,0,0,1,6,0,0.002,9,4,1,0,0,0,69,69,57,1,,,,,,,,,,,,,,,,,,,,,
,,,,,,,,,,,,,,,,,,,,,,,,,,,,,,,,,,,,,,,,,,,5e3f0bbe9907e915e0179f44,5ff3a3f40a5e7fa057a9baed,2021-01-04_23h26.07.443,Colour_Similarity_Experiment_v1,2020.1.2,MacIntel,60,5ff3a352adaa099f7659f8cc,,,,,,,,,,,,,,,,,,,,FF,,,,,,,,7,0.72,,,,,,,,,,,,,,,,,,,,,,,,,,,,2,37,82,1,0,0,response1disk,5,233,12,2,1,0,0,rectangle,12,2,1,0,0,1,5,0,0.001,12,2,1,0,0,0,70,70,80,1,,,,,,,,,,,,,,,,,,,,,
,,,,,,,,,,,,,,,,,,,,,,,,,,,,,,,,,,,,,,,,,,,5e3f0bbe9907e915e0179f44,5ff3a3f40a5e7fa057a9baed,2021-01-04_23h26.07.443,Colour_Similarity_Experiment_v1,2020.1.2,MacIntel,60,5ff3a352adaa099f7659f8cc,,,,,,,,,,,,,,,,,,,,FF,,,,,,,,7,0.653,,,,,,,,,,,,,,,,,,,,,,,,,,,,7,38,66,1,0,0,response1disk,2,234,-16,15,1,0,0,rectangle,-16,15,1,0,0,1,6,0,0.002,-16,15,1,0,0,0,71,71,138,1,,,,,,,,,,,,,,,,,,,,,
,,,,,,,,,,,,,,,,,,,,,,,,,,,,,,,,,,,,,,,,,,,5e3f0bbe9907e915e0179f44,5ff3a3f40a5e7fa057a9baed,2021-01-04_23h26.07.443,Colour_Similarity_Experiment_v1,2020.1.2,MacIntel,60,5ff3a352adaa099f7659f8cc,,,,,,,,,,,,,,,,,,,,FF,,,,,,,,0,1.018,,,,,,,,,,,,,,,,,,,,,,,,,,,,6,-38,94,1,0,0,response7disk,6,235,3,-7,1,0,0,rectangle,3,-7,1,0,0,1,0,0,0.002,3,-7,1,0,0,0,72,72,91,1,,,,,,,,,,,,,,,,,,,,,
,,,,,,,,,,,,,,,,,,,,,,,,,,,,,,,,,,,,,,,,,,,5e3f0bbe9907e915e0179f44,5ff3a3f40a5e7fa057a9baed,2021-01-04_23h26.07.443,Colour_Similarity_Experiment_v1,2020.1.2,MacIntel,60,5ff3a352adaa099f7659f8cc,,,,,,,,,,,,,,,,,,,,PF,,,,,,,,7,0.735,,,,,,,,,,,,,,,,,,,,,,,,,,,,2,36,74,1,0,0,response1disk,8,236,7,0,1,0,0,rectangle,7,0,1,0,0,1,6,0,0.002,7,0,1,0,0,0,73,73,52,1,,,,,,,,,,,,,,,,,,,,,
,,,,,,,,,,,,,,,,,,,,,,,,,,,,,,,,,,,,,,,,,,,5e3f0bbe9907e915e0179f44,5ff3a3f40a5e7fa057a9baed,2021-01-04_23h26.07.443,Colour_Similarity_Experiment_v1,2020.1.2,MacIntel,60,5ff3a352adaa099f7659f8cc,,,,,,,,,,,,,,,,,,,,PF,,,,,,,,7,0.851,,,,,,,,,,,,,,,,,,,,,,,,,,,,5,55,90,1,0,0,response1disk,9,237,-6,-2,1,0,0,rectangle,94,-45,1,0,0,5,5,1,1.587,-11,-2,1,0,0,0,74,74,136,1,response3disk_3,rectangle,,,,,,,,,,,,,,,,,,,
,,,,,,,,,,,,,,,,,,,,,,,,,,,,,,,,,,,,,,,,,,,5e3f0bbe9907e915e0179f44,5ff3a3f40a5e7fa057a9baed,2021-01-04_23h26.07.443,Colour_Similarity_Experiment_v1,2020.1.2,MacIntel,60,5ff3a352adaa099f7659f8cc,,,,,,,,,,,,,,,,,,,,FF,,,,,,,,4,1.504,,,,,,,,,,,,,,,,,,,,,,,,,,,,5,24,-91,1,0,0,response3disk,3,238,-6,-5,1,0,0,rectangle,-6,-5,1,0,0,5,5,0,0.002,-6,-5,1,0,0,0,75,75,25,1,,,,,,,,,,,,,,,,,,,,,
,,,,,,,,,,,,,,,,,,,,,,,,,,,,,,,,,,,,,,,,,,,5e3f0bbe9907e915e0179f44,5ff3a3f40a5e7fa057a9baed,2021-01-04_23h26.07.443,Colour_Similarity_Experiment_v1,2020.1.2,MacIntel,60,5ff3a352adaa099f7659f8cc,,,,,,,,,,,,,,,,,,,,PF,,,,,,,,7,1.102,,,,,,,,,,,,,,,,,,,,,,,,,,,,4,20,69,1,0,0,response1disk,2,239,1,-12,1,0,0,rectangle,1,-12,1,0,0,5,3,0,0.001,1,-12,1,0,0,0,76,76,108,1,,,,,,,,,,,,,,,,,,,,,
,,,,,,,,,,,,,,,,,,,,,,,,,,,,,,,,,,,,,,,,,,,5e3f0bbe9907e915e0179f44,5ff3a3f40a5e7fa057a9baed,2021-01-04_23h26.07.443,Colour_Similarity_Experiment_v1,2020.1.2,MacIntel,60,5ff3a352adaa099f7659f8cc,,,,,,,,,,,,,,,,,,,,PF,,,,,,,,6,1.452,,,,,,,,,,,,,,,,,,,,,,,,,,,,2,95,20,1,0,0,response1disk,3,240,11,4,1,0,0,rectangle,11,4,1,0,0,5,6,0,0.002,11,4,1,0,0,0,77,77,69,1,,,,,,,,,,,,,,,,,,,,,
