key_resp.keys,key_resp.rt,key_resp_16.keys,key_resp_16.rt,key_resp_2.keys,key_resp_2.rt,X Scale,ratio_pxpermm,screen_size_x,screen_size_y,testsize,key_resp_3.keys,key_resp_3.rt,key_resp_4.keys,key_resp_4.rt,line_size,key_resp_5.keys,key_resp_5.rt,key_resp_6.keys,key_resp_6.rt,key_resp_8.keys,key_resp_8.rt,key_resp_7.keys,key_resp_7.rt,key_resp_12.keys,key_resp_12.rt,key_resp_11.keys,key_resp_11.rt,key_resp_18.keys,key_resp_18.rt,key_resp_21.keys,key_resp_21.rt,key_resp_13.keys,key_resp_13.rt,key_resp_19.keys,key_resp_19.rt,ballposx,viewer_distance,trials.thisRepN,trials.thisTrialN,trials.thisN,trials.thisIndex,trials.ran,participant,session,date,expName,psychopyVersion,OS,frameRate,study_id,viewerdistancecm,DVA_to_distance,radius_F,radius_P,r_F,R_P,key_resp_20.keys,key_resp_20.rt,key_resp_14.keys,key_resp_14.rt,key_resp_15.keys,key_resp_15.rt,key_resp_17.keys,key_resp_17.rt,key_resp_9.keys,key_resp_9.rt,key_resp_10.keys,key_resp_10.rt,Colour_1,Ecc,mouse_5.x,mouse_5.y,mouse_5.leftButton,mouse_5.midButton,mouse_5.rightButton,mouse_5.clicked_name,Colour_2,similarity,response_time,mouse_10.x,mouse_10.y,mouse_10.leftButton,mouse_10.midButton,mouse_10.rightButton,mouse_10.clicked_name,mouse_7.x,mouse_7.y,mouse_7.leftButton,mouse_7.midButton,mouse_7.rightButton,catchnumberprac,mouse_6.x,mouse_6.y,mouse_6.leftButton,mouse_6.midButton,mouse_6.rightButton,duringprac.thisRepN,duringprac.thisTrialN,duringprac.thisN,duringprac.thisIndex,duringprac.ran,key_resp_22.keys,key_resp_22.rt,Colour1,mouse.x,mouse.y,mouse.leftButton,mouse.midButton,mouse.rightButton,mouse.clicked_name,Colour2,trialnumber,mouse_2.x,mouse_2.y,mouse_2.leftButton,mouse_2.midButton,mouse_2.rightButton,mouse_2.clicked_name,mouse_3.x,mouse_3.y,mouse_3.leftButton,mouse_3.midButton,mouse_3.rightButton,catchresponse,catchnumber,Catch,response_time_catch,mouse_11.x,mouse_11.y,mouse_11.leftButton,mouse_11.midButton,mouse_11.rightButton,trials_2.thisRepN,trials_2.thisTrialN,trials_2.thisN,trials_2.thisIndex,trials_2.ran,mouse_3.clicked_name,mouse_11.clicked_name,trials_3.thisRepN,trials_3.thisTrialN,trials_3.thisN,trials_3.thisIndex,trials_3.ran,answer1,rt1,answer2,rt2,answer3,rt3,answer4,rt4,answer5,rt5,answer6,rt6,answer7,rt7
space,2.89321,space,10.0116,space,3.00333,50.9,5.09,268.3693517,150.8840864,1366,space,16.633465,space,13.17033,101.8,space,6.300865,space,5.4567,space,3.71691,space,9.48579,space,15.28209,space,7.42455,space,15.150325,space,7.89679,space,25.89632,return,23.35402,-739.689,1052.44562,0,0,0,0,1,5eacad39ef271f3206810eeb,5ff3a3eaf4e2339dadb467c2,2021-01-04_17h26.04.118,Colour_Similarity_Experiment_v1,2020.1.2,Win32,60,5ff3a352adaa099f7659f8cc,,,,,,,,,,,,,,,,,,,,,,,,,,,,,,,,,,,,,,,,,,,,,,,,,,,,,,,,,,,,,,,,,,,,,,,,,,,,,,,,,,,,,,,,,,,,,,,,,,,,,,,,,,,,
,,,,,,,,,,,,,,,,,,,,,,,,,,,,,,,,,,return,10.369595,-760.179,1069.213208,1,0,1,0,1,5eacad39ef271f3206810eeb,5ff3a3eaf4e2339dadb467c2,2021-01-04_17h26.04.118,Colour_Similarity_Experiment_v1,2020.1.2,Win32,60,5ff3a352adaa099f7659f8cc,,,,,,,,,,,,,,,,,,,,,,,,,,,,,,,,,,,,,,,,,,,,,,,,,,,,,,,,,,,,,,,,,,,,,,,,,,,,,,,,,,,,,,,,,,,,,,,,,,,,,,,,,,,,
,,,,,,,,,,,,,,,,,,,,,,,,,,,,,,,,,,return,10.24762,-749.934,1060.829414,2,0,2,0,1,5eacad39ef271f3206810eeb,5ff3a3eaf4e2339dadb467c2,2021-01-04_17h26.04.118,Colour_Similarity_Experiment_v1,2020.1.2,Win32,60,5ff3a352adaa099f7659f8cc,,,,,,,,,,,,,,,,,,,,,,,,,,,,,,,,,,,,,,,,,,,,,,,,,,,,,,,,,,,,,,,,,,,,,,,,,,,,,,,,,,,,,,,,,,,,,,,,,,,,,,,,,,,,
,,,,,,,,,,,,,,,,,,,,,,,,,,,,,,,,,,return,5.90624,-217.194,624.8721205,3,0,3,0,1,5eacad39ef271f3206810eeb,5ff3a3eaf4e2339dadb467c2,2021-01-04_17h26.04.118,Colour_Similarity_Experiment_v1,2020.1.2,Win32,60,5ff3a352adaa099f7659f8cc,,,,,,,,,,,,,,,,,,,,,,,,,,,,,,,,,,,,,,,,,,,,,,,,,,,,,,,,,,,,,,,,,,,,,,,,,,,,,,,,,,,,,,,,,,,,,,,,,,,,,,,,,,,,
,,,,,,,,,,,,,,,,,,,,,,,,,,,,,,,,,,return,6.56419,-293.007,686.9121968,4,0,4,0,1,5eacad39ef271f3206810eeb,5ff3a3eaf4e2339dadb467c2,2021-01-04_17h26.04.118,Colour_Similarity_Experiment_v1,2020.1.2,Win32,60,5ff3a352adaa099f7659f8cc,,,,,,,,,,,,,,,,,,,,,,,,,,,,,,,,,,,,,,,,,,,,,,,,,,,,,,,,,,,,,,,,,,,,,,,,,,,,,,,,,,,,,,,,,,,,,,,,,,,,,,,,,,,,
,,,,,,,,,,,,,,,,,,,,,,,,,,,,,,,,,,,,,,,,,,,5eacad39ef271f3206810eeb,5ff3a3eaf4e2339dadb467c2,2021-01-04_17h26.04.118,Colour_Similarity_Experiment_v1,2020.1.2,Win32,60,5ff3a352adaa099f7659f8cc,107,18.67691279,142.5982292,950.6548612,95.06548612,427.7946875,space,19.8973,space,10.63146,space,31.655415,space,11.23123,space,3.323605,space,4.554655,8,PF,56,-35,1,0,0,response3disk_5,4,5,10.39448,0,-8,1,0,0,rectangle_8,0,-8,1,0,0,5,0,-8,1,0,0,0,0,0,2,1,,,,,,,,,,,,,,,,,,,,,,,,,,,,,,,,,,,,,,,,,,,,,,,,,,,,,,,,,
,,,,,,,,,,,,,,,,,,,,,,,,,,,,,,,,,,,,,,,,,,,5eacad39ef271f3206810eeb,5ff3a3eaf4e2339dadb467c2,2021-01-04_17h26.04.118,Colour_Similarity_Experiment_v1,2020.1.2,Win32,60,5ff3a352adaa099f7659f8cc,,,,,,,,,,,,,,,,,,,4,PF,-87,-56,1,0,0,response5disk_5,3,2,7.837685,-12,5,1,0,0,rectangle_8,-12,5,1,0,0,5,-12,5,1,0,0,0,1,1,1,1,,,,,,,,,,,,,,,,,,,,,,,,,,,,,,,,,,,,,,,,,,,,,,,,,,,,,,,,,
,,,,,,,,,,,,,,,,,,,,,,,,,,,,,,,,,,,,,,,,,,,5eacad39ef271f3206810eeb,5ff3a3eaf4e2339dadb467c2,2021-01-04_17h26.04.118,Colour_Similarity_Experiment_v1,2020.1.2,Win32,60,5ff3a352adaa099f7659f8cc,,,,,,,,,,,,,,,,,,,8,FF,-31,-18,1,0,0,response5disk_5,3,2,9.384315,22,10,1,0,0,rectangle_8,22,10,1,0,0,5,22,10,1,0,0,0,2,2,3,1,,,,,,,,,,,,,,,,,,,,,,,,,,,,,,,,,,,,,,,,,,,,,,,,,,,,,,,,,
,,,,,,,,,,,,,,,,,,,,,,,,,,,,,,,,,,,,,,,,,,,5eacad39ef271f3206810eeb,5ff3a3eaf4e2339dadb467c2,2021-01-04_17h26.04.118,Colour_Similarity_Experiment_v1,2020.1.2,Win32,60,5ff3a352adaa099f7659f8cc,,,,,,,,,,,,,,,,,,,5,FF,37,92,1,0,0,response1disk_5,1,7,2.798805,-1,-3,1,0,0,rectangle_8,-1,-3,1,0,0,5,-1,-3,1,0,0,0,3,3,0,1,,,,,,,,,,,,,,,,,,,,,,,,,,,,,,,,,,,,,,,,,,,,,,,,,,,,,,,,,
,,,,,,,,,,,,,,,,,,,,,,,,,,,,,,,,,,,,,,,,,,,5eacad39ef271f3206810eeb,5ff3a3eaf4e2339dadb467c2,2021-01-04_17h26.04.118,Colour_Similarity_Experiment_v1,2020.1.2,Win32,60,5ff3a352adaa099f7659f8cc,,,,,,,,,,,,,,,,,,,8,PF,106,-55,1,0,0,response3disk_5,6,5,8.404615,6,-7,1,0,0,rectangle_8,6,-7,1,0,0,5,6,-7,1,0,0,0,4,4,6,1,,,,,,,,,,,,,,,,,,,,,,,,,,,,,,,,,,,,,,,,,,,,,,,,,,,,,,,,,
,,,,,,,,,,,,,,,,,,,,,,,,,,,,,,,,,,,,,,,,,,,5eacad39ef271f3206810eeb,5ff3a3eaf4e2339dadb467c2,2021-01-04_17h26.04.118,Colour_Similarity_Experiment_v1,2020.1.2,Win32,60,5ff3a352adaa099f7659f8cc,,,,,,,,,,,,,,,,,,,9,FF,47,90,1,0,0,response1disk_5,1,7,5.86105,-8,-2,1,0,0,rectangle_8,-8,-2,1,0,0,5,-8,-2,1,0,0,0,5,5,5,1,,,,,,,,,,,,,,,,,,,,,,,,,,,,,,,,,,,,,,,,,,,,,,,,,,,,,,,,,
,,,,,,,,,,,,,,,,,,,,,,,,,,,,,,,,,,,,,,,,,,,5eacad39ef271f3206810eeb,5ff3a3eaf4e2339dadb467c2,2021-01-04_17h26.04.118,Colour_Similarity_Experiment_v1,2020.1.2,Win32,60,5ff3a352adaa099f7659f8cc,,,,,,,,,,,,,,,,,,,1,PF,-53,96,1,0,0,response7disk_5,1,0,8.099065,-8,4,1,0,0,rectangle_8,-8,4,1,0,0,5,-8,4,1,0,0,0,6,6,4,1,,,,,,,,,,,,,,,,,,,,,,,,,,,,,,,,,,,,,,,,,,,,,,,,,,,,,,,,,
,,,,,,,,,,,,,,,,,,,,,,,,,,,,,,,,,,,,,,,,,,,5eacad39ef271f3206810eeb,5ff3a3eaf4e2339dadb467c2,2021-01-04_17h26.04.118,Colour_Similarity_Experiment_v1,2020.1.2,Win32,60,5ff3a352adaa099f7659f8cc,,,,,,,,,,,,,,,,,,,,FF,,,,,,,,7,3.595235,,,,,,,,,,,,,,,,,,,,,,,space,3.972755,1,27,78,1,0,0,response1disk,4,1,-18,-2,1,0,0,rectangle,-18,-2,1,0,0,,1,0,0.00559,-18,-2,1,0,0,0,0,0,135,1,,,,,,,,,,,,,,,,,,,,,
,,,,,,,,,,,,,,,,,,,,,,,,,,,,,,,,,,,,,,,,,,,5eacad39ef271f3206810eeb,5ff3a3eaf4e2339dadb467c2,2021-01-04_17h26.04.118,Colour_Similarity_Experiment_v1,2020.1.2,Win32,60,5ff3a352adaa099f7659f8cc,,,,,,,,,,,,,,,,,,,,PF,,,,,,,,7,4.834635,,,,,,,,,,,,,,,,,,,,,,,,,8,43,74,1,0,0,response1disk,3,2,-5,5,1,0,0,rectangle,-5,5,1,0,0,,5,0,0.00312,-5,5,1,0,0,0,1,1,71,1,,,,,,,,,,,,,,,,,,,,,
,,,,,,,,,,,,,,,,,,,,,,,,,,,,,,,,,,,,,,,,,,,5eacad39ef271f3206810eeb,5ff3a3eaf4e2339dadb467c2,2021-01-04_17h26.04.118,Colour_Similarity_Experiment_v1,2020.1.2,Win32,60,5ff3a352adaa099f7659f8cc,,,,,,,,,,,,,,,,,,,,PF,,,,,,,,3,4.78255,,,,,,,,,,,,,,,,,,,,,,,,,3,-22,-59,1,0,0,response5disk,5,3,26,6,1,0,0,rectangle,26,6,1,0,0,,6,0,0.00135,26,6,1,0,0,0,2,2,66,1,,,,,,,,,,,,,,,,,,,,,
,,,,,,,,,,,,,,,,,,,,,,,,,,,,,,,,,,,,,,,,,,,5eacad39ef271f3206810eeb,5ff3a3eaf4e2339dadb467c2,2021-01-04_17h26.04.118,Colour_Similarity_Experiment_v1,2020.1.2,Win32,60,5ff3a352adaa099f7659f8cc,,,,,,,,,,,,,,,,,,,,FF,,,,,,,,7,2.07643,,,,,,,,,,,,,,,,,,,,,,,,,9,46,89,1,0,0,response1disk,3,4,7,2,1,0,0,rectangle,7,2,1,0,0,,7,0,0.00158,7,2,1,0,0,0,3,3,141,1,,,,,,,,,,,,,,,,,,,,,
,,,,,,,,,,,,,,,,,,,,,,,,,,,,,,,,,,,,,,,,,,,5eacad39ef271f3206810eeb,5ff3a3eaf4e2339dadb467c2,2021-01-04_17h26.04.118,Colour_Similarity_Experiment_v1,2020.1.2,Win32,60,5ff3a352adaa099f7659f8cc,,,,,,,,,,,,,,,,,,,,PF,,,,,,,,3,3.44896,,,,,,,,,,,,,,,,,,,,,,,,,8,-27,-63,1,0,0,response5disk,5,5,0,-5,1,0,0,rectangle,0,-5,1,0,0,,0,0,0.002845,0,-5,1,0,0,0,4,4,98,1,,,,,,,,,,,,,,,,,,,,,
,,,,,,,,,,,,,,,,,,,,,,,,,,,,,,,,,,,,,,,,,,,5eacad39ef271f3206810eeb,5ff3a3eaf4e2339dadb467c2,2021-01-04_17h26.04.118,Colour_Similarity_Experiment_v1,2020.1.2,Win32,60,5ff3a352adaa099f7659f8cc,,,,,,,,,,,,,,,,,,,,FF,,,,,,,,4,3.6721,,,,,,,,,,,,,,,,,,,,,,,,,5,42,-67,1,0,0,response3disk,6,6,12,-6,1,0,0,rectangle,12,-6,1,0,0,,4,0,0.00271,12,-6,1,0,0,0,5,5,12,1,,,,,,,,,,,,,,,,,,,,,
,,,,,,,,,,,,,,,,,,,,,,,,,,,,,,,,,,,,,,,,,,,5eacad39ef271f3206810eeb,5ff3a3eaf4e2339dadb467c2,2021-01-04_17h26.04.118,Colour_Similarity_Experiment_v1,2020.1.2,Win32,60,5ff3a352adaa099f7659f8cc,,,,,,,,,,,,,,,,,,,,PF,,,,,,,,5,2.67274,,,,,,,,,,,,,,,,,,,,,,,,,8,75,-23,1,0,0,response3disk,9,7,8,-9,1,0,0,rectangle,8,-9,1,0,0,,5,0,0.00378,8,-9,1,0,0,0,6,6,42,1,,,,,,,,,,,,,,,,,,,,,
,,,,,,,,,,,,,,,,,,,,,,,,,,,,,,,,,,,,,,,,,,,5eacad39ef271f3206810eeb,5ff3a3eaf4e2339dadb467c2,2021-01-04_17h26.04.118,Colour_Similarity_Experiment_v1,2020.1.2,Win32,60,5ff3a352adaa099f7659f8cc,,,,,,,,,,,,,,,,,,,,PF,,,,,,,,7,3.567725,,,,,,,,,,,,,,,,,,,,,,,,,4,55,83,1,0,0,response1disk,2,8,7,10,1,0,0,rectangle,7,10,1,0,0,,2,0,0.00141,7,10,1,0,0,0,7,7,108,1,,,,,,,,,,,,,,,,,,,,,
,,,,,,,,,,,,,,,,,,,,,,,,,,,,,,,,,,,,,,,,,,,5eacad39ef271f3206810eeb,5ff3a3eaf4e2339dadb467c2,2021-01-04_17h26.04.118,Colour_Similarity_Experiment_v1,2020.1.2,Win32,60,5ff3a352adaa099f7659f8cc,,,,,,,,,,,,,,,,,,,,PF,,,,,,,,0,2.04105,,,,,,,,,,,,,,,,,,,,,,,,,1,-26,59,1,0,0,response7disk,1,9,-4,2,1,0,0,rectangle,42,110,1,0,0,7,7,1,5.193885,1,3,1,0,0,0,8,8,76,1,response1disk_3,rectangle,,,,,,,,,,,,,,,,,,,
,,,,,,,,,,,,,,,,,,,,,,,,,,,,,,,,,,,,,,,,,,,5eacad39ef271f3206810eeb,5ff3a3eaf4e2339dadb467c2,2021-01-04_17h26.04.118,Colour_Similarity_Experiment_v1,2020.1.2,Win32,60,5ff3a352adaa099f7659f8cc,,,,,,,,,,,,,,,,,,,,PF,,,,,,,,7,4.92608,,,,,,,,,,,,,,,,,,,,,,,,,2,36,63,1,0,0,response1disk,4,10,11,7,1,0,0,rectangle,11,7,1,0,0,7,6,0,0.00578,11,7,1,0,0,0,9,9,127,1,,,,,,,,,,,,,,,,,,,,,
,,,,,,,,,,,,,,,,,,,,,,,,,,,,,,,,,,,,,,,,,,,5eacad39ef271f3206810eeb,5ff3a3eaf4e2339dadb467c2,2021-01-04_17h26.04.118,Colour_Similarity_Experiment_v1,2020.1.2,Win32,60,5ff3a352adaa099f7659f8cc,,,,,,,,,,,,,,,,,,,,PF,,,,,,,,7,2.10337,,,,,,,,,,,,,,,,,,,,,,,,,2,43,79,1,0,0,response1disk,5,11,-4,2,1,0,0,rectangle,-4,2,1,0,0,7,4,0,0.0046,-4,2,1,0,0,0,10,10,147,1,,,,,,,,,,,,,,,,,,,,,
,,,,,,,,,,,,,,,,,,,,,,,,,,,,,,,,,,,,,,,,,,,5eacad39ef271f3206810eeb,5ff3a3eaf4e2339dadb467c2,2021-01-04_17h26.04.118,Colour_Similarity_Experiment_v1,2020.1.2,Win32,60,5ff3a352adaa099f7659f8cc,,,,,,,,,,,,,,,,,,,,FF,,,,,,,,4,2.81157,,,,,,,,,,,,,,,,,,,,,,,,,5,30,-56,1,0,0,response3disk,4,12,16,3,1,0,0,rectangle,16,3,1,0,0,7,1,0,0.001335,16,3,1,0,0,0,11,11,8,1,,,,,,,,,,,,,,,,,,,,,
,,,,,,,,,,,,,,,,,,,,,,,,,,,,,,,,,,,,,,,,,,,5eacad39ef271f3206810eeb,5ff3a3eaf4e2339dadb467c2,2021-01-04_17h26.04.118,Colour_Similarity_Experiment_v1,2020.1.2,Win32,60,5ff3a352adaa099f7659f8cc,,,,,,,,,,,,,,,,,,,,PF,,,,,,,,7,2.12847,,,,,,,,,,,,,,,,,,,,,,,,,2,38,63,1,0,0,response1disk,8,13,13,14,1,0,0,rectangle,13,14,1,0,0,7,4,0,0.001185,13,14,1,0,0,0,12,12,52,1,,,,,,,,,,,,,,,,,,,,,
,,,,,,,,,,,,,,,,,,,,,,,,,,,,,,,,,,,,,,,,,,,5eacad39ef271f3206810eeb,5ff3a3eaf4e2339dadb467c2,2021-01-04_17h26.04.118,Colour_Similarity_Experiment_v1,2020.1.2,Win32,60,5ff3a352adaa099f7659f8cc,,,,,,,,,,,,,,,,,,,,PF,,,,,,,,4,10.555275,,,,,,,,,,,,,,,,,,,,,,,,,7,45,-89,1,0,0,response3disk,5,14,15,1,1,0,0,rectangle,15,1,1,0,0,7,4,0,0.02218,15,1,1,0,0,0,13,13,92,1,,,,,,,,,,,,,,,,,,,,,
,,,,,,,,,,,,,,,,,,,,,,,,,,,,,,,,,,,,,,,,,,,5eacad39ef271f3206810eeb,5ff3a3eaf4e2339dadb467c2,2021-01-04_17h26.04.118,Colour_Similarity_Experiment_v1,2020.1.2,Win32,60,5ff3a352adaa099f7659f8cc,,,,,,,,,,,,,,,,,,,,PF,,,,,,,,5,2.688215,,,,,,,,,,,,,,,,,,,,,,,,,5,104,-55,1,0,0,response3disk,6,15,7,-5,1,0,0,rectangle,7,-5,1,0,0,7,0,0,0.0036,7,-5,1,0,0,0,14,14,103,1,,,,,,,,,,,,,,,,,,,,,
,,,,,,,,,,,,,,,,,,,,,,,,,,,,,,,,,,,,,,,,,,,5eacad39ef271f3206810eeb,5ff3a3eaf4e2339dadb467c2,2021-01-04_17h26.04.118,Colour_Similarity_Experiment_v1,2020.1.2,Win32,60,5ff3a352adaa099f7659f8cc,,,,,,,,,,,,,,,,,,,,FF,,,,,,,,0,2.07372,,,,,,,,,,,,,,,,,,,,,,,,,6,-27,78,1,0,0,response7disk,6,16,-6,9,1,0,0,rectangle,-6,9,1,0,0,7,7,0,0.0017,-6,9,1,0,0,0,15,15,91,1,,,,,,,,,,,,,,,,,,,,,
,,,,,,,,,,,,,,,,,,,,,,,,,,,,,,,,,,,,,,,,,,,5eacad39ef271f3206810eeb,5ff3a3eaf4e2339dadb467c2,2021-01-04_17h26.04.118,Colour_Similarity_Experiment_v1,2020.1.2,Win32,60,5ff3a352adaa099f7659f8cc,,,,,,,,,,,,,,,,,,,,PF,,,,,,,,7,2.65605,,,,,,,,,,,,,,,,,,,,,,,,,7,55,91,1,0,0,response1disk,1,17,1,3,1,0,0,rectangle,1,3,1,0,0,7,2,0,0.003085,1,3,1,0,0,0,16,16,53,1,,,,,,,,,,,,,,,,,,,,,
,,,,,,,,,,,,,,,,,,,,,,,,,,,,,,,,,,,,,,,,,,,5eacad39ef271f3206810eeb,5ff3a3eaf4e2339dadb467c2,2021-01-04_17h26.04.118,Colour_Similarity_Experiment_v1,2020.1.2,Win32,60,5ff3a352adaa099f7659f8cc,,,,,,,,,,,,,,,,,,,,FF,,,,,,,,7,2.89969,,,,,,,,,,,,,,,,,,,,,,,,,6,38,69,1,0,0,response1disk,1,18,16,8,1,0,0,rectangle,16,8,1,0,0,7,5,0,0.002915,16,8,1,0,0,0,17,17,5,1,,,,,,,,,,,,,,,,,,,,,
,,,,,,,,,,,,,,,,,,,,,,,,,,,,,,,,,,,,,,,,,,,5eacad39ef271f3206810eeb,5ff3a3eaf4e2339dadb467c2,2021-01-04_17h26.04.118,Colour_Similarity_Experiment_v1,2020.1.2,Win32,60,5ff3a352adaa099f7659f8cc,,,,,,,,,,,,,,,,,,,,FF,,,,,,,,7,2.39513,,,,,,,,,,,,,,,,,,,,,,,,,8,48,72,1,0,0,response1disk,2,19,8,-1,1,0,0,rectangle,8,-1,1,0,0,7,1,0,0.00158,8,-1,1,0,0,0,18,18,22,1,,,,,,,,,,,,,,,,,,,,,
,,,,,,,,,,,,,,,,,,,,,,,,,,,,,,,,,,,,,,,,,,,5eacad39ef271f3206810eeb,5ff3a3eaf4e2339dadb467c2,2021-01-04_17h26.04.118,Colour_Similarity_Experiment_v1,2020.1.2,Win32,60,5ff3a352adaa099f7659f8cc,,,,,,,,,,,,,,,,,,,,FF,,,,,,,,7,1.84983,,,,,,,,,,,,,,,,,,,,,,,,,3,49,94,1,0,0,response1disk,7,20,6,4,1,0,0,rectangle,6,4,1,0,0,7,4,0,0.002965,6,4,1,0,0,0,19,19,118,1,,,,,,,,,,,,,,,,,,,,,
,,,,,,,,,,,,,,,,,,,,,,,,,,,,,,,,,,,,,,,,,,,5eacad39ef271f3206810eeb,5ff3a3eaf4e2339dadb467c2,2021-01-04_17h26.04.118,Colour_Similarity_Experiment_v1,2020.1.2,Win32,60,5ff3a352adaa099f7659f8cc,,,,,,,,,,,,,,,,,,,,FF,,,,,,,,7,2.86829,,,,,,,,,,,,,,,,,,,,,,,,,1,34,48,1,0,0,response1disk,7,21,2,2,1,0,0,rectangle,2,2,1,0,0,7,0,0,0.00139,2,2,1,0,0,0,20,20,137,1,,,,,,,,,,,,,,,,,,,,,
,,,,,,,,,,,,,,,,,,,,,,,,,,,,,,,,,,,,,,,,,,,5eacad39ef271f3206810eeb,5ff3a3eaf4e2339dadb467c2,2021-01-04_17h26.04.118,Colour_Similarity_Experiment_v1,2020.1.2,Win32,60,5ff3a352adaa099f7659f8cc,,,,,,,,,,,,,,,,,,,,PF,,,,,,,,0,2.62193,,,,,,,,,,,,,,,,,,,,,,,,,4,-35,99,1,0,0,response7disk,4,22,-12,0,1,0,0,rectangle,-12,0,1,0,0,7,7,0,0.00174,-12,0,1,0,0,0,21,21,70,1,,,,,,,,,,,,,,,,,,,,,
,,,,,,,,,,,,,,,,,,,,,,,,,,,,,,,,,,,,,,,,,,,5eacad39ef271f3206810eeb,5ff3a3eaf4e2339dadb467c2,2021-01-04_17h26.04.118,Colour_Similarity_Experiment_v1,2020.1.2,Win32,60,5ff3a352adaa099f7659f8cc,,,,,,,,,,,,,,,,,,,,FF,,,,,,,,7,1.650775,,,,,,,,,,,,,,,,,,,,,,,,,8,46,74,1,0,0,response1disk,5,23,8,1,1,0,0,rectangle,8,1,1,0,0,7,5,0,0.00166,8,1,1,0,0,0,22,22,152,1,,,,,,,,,,,,,,,,,,,,,
,,,,,,,,,,,,,,,,,,,,,,,,,,,,,,,,,,,,,,,,,,,5eacad39ef271f3206810eeb,5ff3a3eaf4e2339dadb467c2,2021-01-04_17h26.04.118,Colour_Similarity_Experiment_v1,2020.1.2,Win32,60,5ff3a352adaa099f7659f8cc,,,,,,,,,,,,,,,,,,,,FF,,,,,,,,7,1.629825,,,,,,,,,,,,,,,,,,,,,,,,,4,41,66,1,0,0,response1disk,7,24,2,-2,1,0,0,rectangle,2,-2,1,0,0,7,2,0,0.002915,2,-2,1,0,0,0,23,23,87,1,,,,,,,,,,,,,,,,,,,,,
,,,,,,,,,,,,,,,,,,,,,,,,,,,,,,,,,,,,,,,,,,,5eacad39ef271f3206810eeb,5ff3a3eaf4e2339dadb467c2,2021-01-04_17h26.04.118,Colour_Similarity_Experiment_v1,2020.1.2,Win32,60,5ff3a352adaa099f7659f8cc,,,,,,,,,,,,,,,,,,,,FF,,,,,,,,7,1.47509,,,,,,,,,,,,,,,,,,,,,,,,,6,38,64,1,0,0,response1disk,4,25,8,1,1,0,0,rectangle,8,1,1,0,0,7,4,0,0.0041,8,1,1,0,0,0,24,24,56,1,,,,,,,,,,,,,,,,,,,,,
,,,,,,,,,,,,,,,,,,,,,,,,,,,,,,,,,,,,,,,,,,,5eacad39ef271f3206810eeb,5ff3a3eaf4e2339dadb467c2,2021-01-04_17h26.04.118,Colour_Similarity_Experiment_v1,2020.1.2,Win32,60,5ff3a352adaa099f7659f8cc,,,,,,,,,,,,,,,,,,,,PF,,,,,,,,7,1.910345,,,,,,,,,,,,,,,,,,,,,,,,,1,48,85,1,0,0,response1disk,3,26,10,10,1,0,0,rectangle,10,10,1,0,0,7,4,0,0.001205,10,10,1,0,0,0,25,25,1,1,,,,,,,,,,,,,,,,,,,,,
,,,,,,,,,,,,,,,,,,,,,,,,,,,,,,,,,,,,,,,,,,,5eacad39ef271f3206810eeb,5ff3a3eaf4e2339dadb467c2,2021-01-04_17h26.04.118,Colour_Similarity_Experiment_v1,2020.1.2,Win32,60,5ff3a352adaa099f7659f8cc,,,,,,,,,,,,,,,,,,,,FF,,,,,,,,7,1.70521,,,,,,,,,,,,,,,,,,,,,,,,,7,51,64,1,0,0,response1disk,2,27,8,5,1,0,0,rectangle,8,5,1,0,0,7,7,0,0.001475,8,5,1,0,0,0,26,26,138,1,,,,,,,,,,,,,,,,,,,,,
,,,,,,,,,,,,,,,,,,,,,,,,,,,,,,,,,,,,,,,,,,,5eacad39ef271f3206810eeb,5ff3a3eaf4e2339dadb467c2,2021-01-04_17h26.04.118,Colour_Similarity_Experiment_v1,2020.1.2,Win32,60,5ff3a352adaa099f7659f8cc,,,,,,,,,,,,,,,,,,,,FF,,,,,,,,4,3.011785,,,,,,,,,,,,,,,,,,,,,,,,,4,57,-70,1,0,0,response3disk,5,28,12,-1,1,0,0,rectangle,12,-1,1,0,0,7,3,0,0.00302,12,-1,1,0,0,0,27,27,116,1,,,,,,,,,,,,,,,,,,,,,
,,,,,,,,,,,,,,,,,,,,,,,,,,,,,,,,,,,,,,,,,,,5eacad39ef271f3206810eeb,5ff3a3eaf4e2339dadb467c2,2021-01-04_17h26.04.118,Colour_Similarity_Experiment_v1,2020.1.2,Win32,60,5ff3a352adaa099f7659f8cc,,,,,,,,,,,,,,,,,,,,FF,,,,,,,,7,2.02039,,,,,,,,,,,,,,,,,,,,,,,,,4,67,86,1,0,0,response1disk,9,29,5,9,1,0,0,rectangle,5,9,1,0,0,7,2,0,0.0013,5,9,1,0,0,0,28,28,90,1,,,,,,,,,,,,,,,,,,,,,
,,,,,,,,,,,,,,,,,,,,,,,,,,,,,,,,,,,,,,,,,,,5eacad39ef271f3206810eeb,5ff3a3eaf4e2339dadb467c2,2021-01-04_17h26.04.118,Colour_Similarity_Experiment_v1,2020.1.2,Win32,60,5ff3a352adaa099f7659f8cc,,,,,,,,,,,,,,,,,,,,FF,,,,,,,,7,3.820065,,,,,,,,,,,,,,,,,,,,,,,,,7,44,118,1,0,0,response1disk,1,30,0,-1,1,0,0,rectangle,0,-1,1,0,0,7,2,0,0.00118,0,-1,1,0,0,0,29,29,132,1,,,,,,,,,,,,,,,,,,,,,
,,,,,,,,,,,,,,,,,,,,,,,,,,,,,,,,,,,,,,,,,,,5eacad39ef271f3206810eeb,5ff3a3eaf4e2339dadb467c2,2021-01-04_17h26.04.118,Colour_Similarity_Experiment_v1,2020.1.2,Win32,60,5ff3a352adaa099f7659f8cc,,,,,,,,,,,,,,,,,,,,PF,,,,,,,,7,2.679645,,,,,,,,,,,,,,,,,,,,,,,,,4,27,63,1,0,0,response1disk,1,31,-9,7,1,0,0,rectangle,-9,7,1,0,0,7,5,0,0.00127,-9,7,1,0,0,0,30,30,115,1,,,,,,,,,,,,,,,,,,,,,
,,,,,,,,,,,,,,,,,,,,,,,,,,,,,,,,,,,,,,,,,,,5eacad39ef271f3206810eeb,5ff3a3eaf4e2339dadb467c2,2021-01-04_17h26.04.118,Colour_Similarity_Experiment_v1,2020.1.2,Win32,60,5ff3a352adaa099f7659f8cc,,,,,,,,,,,,,,,,,,,,FF,,,,,,,,0,1.76477,,,,,,,,,,,,,,,,,,,,,,,,,3,-32,57,1,0,0,response7disk,3,32,-20,7,1,0,0,rectangle,-20,7,1,0,0,7,5,0,0.001355,-20,7,1,0,0,0,31,31,68,1,,,,,,,,,,,,,,,,,,,,,
,,,,,,,,,,,,,,,,,,,,,,,,,,,,,,,,,,,,,,,,,,,5eacad39ef271f3206810eeb,5ff3a3eaf4e2339dadb467c2,2021-01-04_17h26.04.118,Colour_Similarity_Experiment_v1,2020.1.2,Win32,60,5ff3a352adaa099f7659f8cc,,,,,,,,,,,,,,,,,,,,PF,,,,,,,,7,2.12811,,,,,,,,,,,,,,,,,,,,,,,,,1,34,82,1,0,0,response1disk,5,33,3,10,1,0,0,rectangle,3,10,1,0,0,7,3,0,0.001525,3,10,1,0,0,0,32,32,28,1,,,,,,,,,,,,,,,,,,,,,
,,,,,,,,,,,,,,,,,,,,,,,,,,,,,,,,,,,,,,,,,,,5eacad39ef271f3206810eeb,5ff3a3eaf4e2339dadb467c2,2021-01-04_17h26.04.118,Colour_Similarity_Experiment_v1,2020.1.2,Win32,60,5ff3a352adaa099f7659f8cc,,,,,,,,,,,,,,,,,,,,PF,,,,,,,,7,3.40366,,,,,,,,,,,,,,,,,,,,,,,,,8,42,59,1,0,0,response1disk,6,34,12,1,1,0,0,rectangle,47,90,1,0,0,7,7,1,5.27751,7,4,1,0,0,0,33,33,161,1,response1disk_3,rectangle,,,,,,,,,,,,,,,,,,,
,,,,,,,,,,,,,,,,,,,,,,,,,,,,,,,,,,,,,,,,,,,5eacad39ef271f3206810eeb,5ff3a3eaf4e2339dadb467c2,2021-01-04_17h26.04.118,Colour_Similarity_Experiment_v1,2020.1.2,Win32,60,5ff3a352adaa099f7659f8cc,,,,,,,,,,,,,,,,,,,,PF,,,,,,,,7,2.49593,,,,,,,,,,,,,,,,,,,,,,,,,5,28,89,1,0,0,response1disk,2,35,-6,6,1,0,0,rectangle,-6,6,1,0,0,7,1,0,0.001445,-6,6,1,0,0,0,34,34,129,1,,,,,,,,,,,,,,,,,,,,,
,,,,,,,,,,,,,,,,,,,,,,,,,,,,,,,,,,,,,,,,,,,5eacad39ef271f3206810eeb,5ff3a3eaf4e2339dadb467c2,2021-01-04_17h26.04.118,Colour_Similarity_Experiment_v1,2020.1.2,Win32,60,5ff3a352adaa099f7659f8cc,,,,,,,,,,,,,,,,,,,,FF,,,,,,,,7,2.20775,,,,,,,,,,,,,,,,,,,,,,,,,8,41,63,1,0,0,response1disk,4,36,6,4,1,0,0,rectangle,6,4,1,0,0,7,0,0,0.00257,6,4,1,0,0,0,35,35,88,1,,,,,,,,,,,,,,,,,,,,,
,,,,,,,,,,,,,,,,,,,,,,,,,,,,,,,,,,,,,,,,,,,5eacad39ef271f3206810eeb,5ff3a3eaf4e2339dadb467c2,2021-01-04_17h26.04.118,Colour_Similarity_Experiment_v1,2020.1.2,Win32,60,5ff3a352adaa099f7659f8cc,,,,,,,,,,,,,,,,,,,,PF,,,,,,,,4,3.711055,,,,,,,,,,,,,,,,,,,,,,,,,4,36,-63,1,0,0,response3disk,3,37,11,-8,1,0,0,rectangle,11,-8,1,0,0,7,0,0,0.001235,11,-8,1,0,0,0,36,36,89,1,,,,,,,,,,,,,,,,,,,,,
,,,,,,,,,,,,,,,,,,,,,,,,,,,,,,,,,,,,,,,,,,,5eacad39ef271f3206810eeb,5ff3a3eaf4e2339dadb467c2,2021-01-04_17h26.04.118,Colour_Similarity_Experiment_v1,2020.1.2,Win32,60,5ff3a352adaa099f7659f8cc,,,,,,,,,,,,,,,,,,,,PF,,,,,,,,5,3.358075,,,,,,,,,,,,,,,,,,,,,,,,,6,74,-30,1,0,0,response3disk,5,38,11,-11,1,0,0,rectangle,11,-11,1,0,0,7,0,0,0.0015,11,-11,1,0,0,0,37,37,59,1,,,,,,,,,,,,,,,,,,,,,
,,,,,,,,,,,,,,,,,,,,,,,,,,,,,,,,,,,,,,,,,,,5eacad39ef271f3206810eeb,5ff3a3eaf4e2339dadb467c2,2021-01-04_17h26.04.118,Colour_Similarity_Experiment_v1,2020.1.2,Win32,60,5ff3a352adaa099f7659f8cc,,,,,,,,,,,,,,,,,,,,PF,,,,,,,,7,3.97738,,,,,,,,,,,,,,,,,,,,,,,,,9,58,85,1,0,0,response1disk,8,39,6,-4,1,0,0,rectangle,6,-4,1,0,0,7,2,0,0.002805,6,-4,1,0,0,0,38,38,67,1,,,,,,,,,,,,,,,,,,,,,
,,,,,,,,,,,,,,,,,,,,,,,,,,,,,,,,,,,,,,,,,,,5eacad39ef271f3206810eeb,5ff3a3eaf4e2339dadb467c2,2021-01-04_17h26.04.118,Colour_Similarity_Experiment_v1,2020.1.2,Win32,60,5ff3a352adaa099f7659f8cc,,,,,,,,,,,,,,,,,,,,FF,,,,,,,,7,2.25674,,,,,,,,,,,,,,,,,,,,,,,,,4,42,54,1,0,0,response1disk,1,40,16,3,1,0,0,rectangle,16,3,1,0,0,7,7,0,0.001255,16,3,1,0,0,0,39,39,102,1,,,,,,,,,,,,,,,,,,,,,
,,,,,,,,,,,,,,,,,,,,,,,,,,,,,,,,,,,,,,,,,,,5eacad39ef271f3206810eeb,5ff3a3eaf4e2339dadb467c2,2021-01-04_17h26.04.118,Colour_Similarity_Experiment_v1,2020.1.2,Win32,60,5ff3a352adaa099f7659f8cc,,,,,,,,,,,,,,,,,,,,FF,,,,,,,,0,1.612525,,,,,,,,,,,,,,,,,,,,,,,,,2,-28,68,1,0,0,response7disk,2,41,-10,0,1,0,0,rectangle,-10,0,1,0,0,7,2,0,0.00279,-10,0,1,0,0,0,40,40,142,1,,,,,,,,,,,,,,,,,,,,,
,,,,,,,,,,,,,,,,,,,,,,,,,,,,,,,,,,,,,,,,,,,5eacad39ef271f3206810eeb,5ff3a3eaf4e2339dadb467c2,2021-01-04_17h26.04.118,Colour_Similarity_Experiment_v1,2020.1.2,Win32,60,5ff3a352adaa099f7659f8cc,,,,,,,,,,,,,,,,,,,,FF,,,,,,,,7,3.12119,,,,,,,,,,,,,,,,,,,,,,,,,9,45,83,1,0,0,response1disk,7,42,14,11,1,0,0,rectangle,14,11,1,0,0,7,1,0,0.00111,14,11,1,0,0,0,41,41,100,1,,,,,,,,,,,,,,,,,,,,,
,,,,,,,,,,,,,,,,,,,,,,,,,,,,,,,,,,,,,,,,,,,5eacad39ef271f3206810eeb,5ff3a3eaf4e2339dadb467c2,2021-01-04_17h26.04.118,Colour_Similarity_Experiment_v1,2020.1.2,Win32,60,5ff3a352adaa099f7659f8cc,,,,,,,,,,,,,,,,,,,,PF,,,,,,,,7,1.76589,,,,,,,,,,,,,,,,,,,,,,,,,7,37,61,1,0,0,response1disk,8,43,12,8,1,0,0,rectangle,12,8,1,0,0,7,0,0,0.00152,12,8,1,0,0,0,42,42,140,1,,,,,,,,,,,,,,,,,,,,,
,,,,,,,,,,,,,,,,,,,,,,,,,,,,,,,,,,,,,,,,,,,5eacad39ef271f3206810eeb,5ff3a3eaf4e2339dadb467c2,2021-01-04_17h26.04.118,Colour_Similarity_Experiment_v1,2020.1.2,Win32,60,5ff3a352adaa099f7659f8cc,,,,,,,,,,,,,,,,,,,,PF,,,,,,,,4,3.27487,,,,,,,,,,,,,,,,,,,,,,,,,3,44,-59,1,0,0,response3disk,2,44,15,-4,1,0,0,rectangle,33,-79,1,0,0,4,4,1,4.176635,11,-7,1,0,0,0,43,43,36,1,response3disk_3,rectangle,,,,,,,,,,,,,,,,,,,
,,,,,,,,,,,,,,,,,,,,,,,,,,,,,,,,,,,,,,,,,,,5eacad39ef271f3206810eeb,5ff3a3eaf4e2339dadb467c2,2021-01-04_17h26.04.118,Colour_Similarity_Experiment_v1,2020.1.2,Win32,60,5ff3a352adaa099f7659f8cc,,,,,,,,,,,,,,,,,,,,FF,,,,,,,,5,5.13277,,,,,,,,,,,,,,,,,,,,,,,,,9,44,-41,1,0,0,response3disk,2,45,19,-3,1,0,0,rectangle,-32,69,1,0,0,0,0,1,2.54063,-6,15,1,0,0,0,44,44,11,1,response7disk_3,rectangle,,,,,,,,,,,,,,,,,,,
,,,,,,,,,,,,,,,,,,,,,,,,,,,,,,,,,,,,,,,,,,,5eacad39ef271f3206810eeb,5ff3a3eaf4e2339dadb467c2,2021-01-04_17h26.04.118,Colour_Similarity_Experiment_v1,2020.1.2,Win32,60,5ff3a352adaa099f7659f8cc,,,,,,,,,,,,,,,,,,,,FF,,,,,,,,4,4.791825,,,,,,,,,,,,,,,,,,,,,,,,,9,55,-88,1,0,0,response3disk,8,46,14,1,1,0,0,rectangle,14,1,1,0,0,0,3,0,0.004235,14,1,1,0,0,0,45,45,6,1,,,,,,,,,,,,,,,,,,,,,
,,,,,,,,,,,,,,,,,,,,,,,,,,,,,,,,,,,,,,,,,,,5eacad39ef271f3206810eeb,5ff3a3eaf4e2339dadb467c2,2021-01-04_17h26.04.118,Colour_Similarity_Experiment_v1,2020.1.2,Win32,60,5ff3a352adaa099f7659f8cc,,,,,,,,,,,,,,,,,,,,FF,,,,,,,,7,1.67855,,,,,,,,,,,,,,,,,,,,,,,,,2,48,79,1,0,0,response1disk,5,47,11,6,1,0,0,rectangle,11,6,1,0,0,0,7,0,0.00126,11,6,1,0,0,0,46,46,80,1,,,,,,,,,,,,,,,,,,,,,
,,,,,,,,,,,,,,,,,,,,,,,,,,,,,,,,,,,,,,,,,,,5eacad39ef271f3206810eeb,5ff3a3eaf4e2339dadb467c2,2021-01-04_17h26.04.118,Colour_Similarity_Experiment_v1,2020.1.2,Win32,60,5ff3a352adaa099f7659f8cc,,,,,,,,,,,,,,,,,,,,PF,,,,,,,,7,1.67427,,,,,,,,,,,,,,,,,,,,,,,,,1,33,73,1,0,0,response1disk,2,48,5,4,1,0,0,rectangle,5,4,1,0,0,0,1,0,0.001605,5,4,1,0,0,0,47,47,24,1,,,,,,,,,,,,,,,,,,,,,
,,,,,,,,,,,,,,,,,,,,,,,,,,,,,,,,,,,,,,,,,,,5eacad39ef271f3206810eeb,5ff3a3eaf4e2339dadb467c2,2021-01-04_17h26.04.118,Colour_Similarity_Experiment_v1,2020.1.2,Win32,60,5ff3a352adaa099f7659f8cc,,,,,,,,,,,,,,,,,,,,PF,,,,,,,,3,3.50528,,,,,,,,,,,,,,,,,,,,,,,,,3,-39,-85,1,0,0,response5disk,3,49,-4,-4,1,0,0,rectangle,-4,-4,1,0,0,0,7,0,0.03852,-4,-4,1,0,0,0,48,48,4,1,,,,,,,,,,,,,,,,,,,,,
,,,,,,,,,,,,,,,,,,,,,,,,,,,,,,,,,,,,,,,,,,,5eacad39ef271f3206810eeb,5ff3a3eaf4e2339dadb467c2,2021-01-04_17h26.04.118,Colour_Similarity_Experiment_v1,2020.1.2,Win32,60,5ff3a352adaa099f7659f8cc,,,,,,,,,,,,,,,,,,,,PF,,,,,,,,0,2.27484,,,,,,,,,,,,,,,,,,,,,,,,,9,-29,59,1,0,0,response7disk,9,50,-3,6,1,0,0,rectangle,-3,6,1,0,0,0,3,0,0.002815,-3,6,1,0,0,0,49,49,106,1,,,,,,,,,,,,,,,,,,,,,
,,,,,,,,,,,,,,,,,,,,,,,,,,,,,,,,,,,,,,,,,,,5eacad39ef271f3206810eeb,5ff3a3eaf4e2339dadb467c2,2021-01-04_17h26.04.118,Colour_Similarity_Experiment_v1,2020.1.2,Win32,60,5ff3a352adaa099f7659f8cc,,,,,,,,,,,,,,,,,,,,PF,,,,,,,,7,1.870445,,,,,,,,,,,,,,,,,,,,,,,,,8,40,82,1,0,0,response1disk,1,51,14,3,1,0,0,rectangle,14,3,1,0,0,0,0,0,0.00119,14,3,1,0,0,0,50,50,57,1,,,,,,,,,,,,,,,,,,,,,
,,,,,,,,,,,,,,,,,,,,,,,,,,,,,,,,,,,,,,,,,,,5eacad39ef271f3206810eeb,5ff3a3eaf4e2339dadb467c2,2021-01-04_17h26.04.118,Colour_Similarity_Experiment_v1,2020.1.2,Win32,60,5ff3a352adaa099f7659f8cc,,,,,,,,,,,,,,,,,,,,PF,,,,,,,,0,1.808595,,,,,,,,,,,,,,,,,,,,,,,,,2,-22,73,1,0,0,response7disk,2,52,-4,-4,1,0,0,rectangle,-4,-4,1,0,0,0,2,0,0.00233,-4,-4,1,0,0,0,51,51,14,1,,,,,,,,,,,,,,,,,,,,,
,,,,,,,,,,,,,,,,,,,,,,,,,,,,,,,,,,,,,,,,,,,5eacad39ef271f3206810eeb,5ff3a3eaf4e2339dadb467c2,2021-01-04_17h26.04.118,Colour_Similarity_Experiment_v1,2020.1.2,Win32,60,5ff3a352adaa099f7659f8cc,,,,,,,,,,,,,,,,,,,,FF,,,,,,,,7,1.769875,,,,,,,,,,,,,,,,,,,,,,,,,2,37,74,1,0,0,response1disk,4,53,8,1,1,0,0,rectangle,8,1,1,0,0,0,7,0,0.0011,8,1,1,0,0,0,52,52,145,1,,,,,,,,,,,,,,,,,,,,,
,,,,,,,,,,,,,,,,,,,,,,,,,,,,,,,,,,,,,,,,,,,5eacad39ef271f3206810eeb,5ff3a3eaf4e2339dadb467c2,2021-01-04_17h26.04.118,Colour_Similarity_Experiment_v1,2020.1.2,Win32,60,5ff3a352adaa099f7659f8cc,,,,,,,,,,,,,,,,,,,,FF,,,,,,,,5,4.07638,,,,,,,,,,,,,,,,,,,,,,,,,6,91,-72,1,0,0,response3disk,7,54,21,-2,1,0,0,rectangle,21,-2,1,0,0,0,3,0,0.00294,21,-2,1,0,0,0,53,53,18,1,,,,,,,,,,,,,,,,,,,,,
,,,,,,,,,,,,,,,,,,,,,,,,,,,,,,,,,,,,,,,,,,,5eacad39ef271f3206810eeb,5ff3a3eaf4e2339dadb467c2,2021-01-04_17h26.04.118,Colour_Similarity_Experiment_v1,2020.1.2,Win32,60,5ff3a352adaa099f7659f8cc,,,,,,,,,,,,,,,,,,,,FF,,,,,,,,0,4.80291,,,,,,,,,,,,,,,,,,,,,,,,,1,-31,80,1,0,0,response7disk,1,55,0,6,1,0,0,rectangle,0,6,1,0,0,0,3,0,0.00185,0,6,1,0,0,0,54,54,151,1,,,,,,,,,,,,,,,,,,,,,
,,,,,,,,,,,,,,,,,,,,,,,,,,,,,,,,,,,,,,,,,,,5eacad39ef271f3206810eeb,5ff3a3eaf4e2339dadb467c2,2021-01-04_17h26.04.118,Colour_Similarity_Experiment_v1,2020.1.2,Win32,60,5ff3a352adaa099f7659f8cc,,,,,,,,,,,,,,,,,,,,FF,,,,,,,,4,2.81101,,,,,,,,,,,,,,,,,,,,,,,,,8,66,-82,1,0,0,response3disk,9,56,0,-6,1,0,0,rectangle,0,-6,1,0,0,0,3,0,0.001455,0,-6,1,0,0,0,55,55,105,1,,,,,,,,,,,,,,,,,,,,,
,,,,,,,,,,,,,,,,,,,,,,,,,,,,,,,,,,,,,,,,,,,5eacad39ef271f3206810eeb,5ff3a3eaf4e2339dadb467c2,2021-01-04_17h26.04.118,Colour_Similarity_Experiment_v1,2020.1.2,Win32,60,5ff3a352adaa099f7659f8cc,,,,,,,,,,,,,,,,,,,,PF,,,,,,,,7,3.918825,,,,,,,,,,,,,,,,,,,,,,,,,6,51,66,1,0,0,response1disk,7,57,-7,-6,1,0,0,rectangle,-7,-6,1,0,0,0,4,0,0.002535,-7,-6,1,0,0,0,56,56,50,1,,,,,,,,,,,,,,,,,,,,,
,,,,,,,,,,,,,,,,,,,,,,,,,,,,,,,,,,,,,,,,,,,5eacad39ef271f3206810eeb,5ff3a3eaf4e2339dadb467c2,2021-01-04_17h26.04.118,Colour_Similarity_Experiment_v1,2020.1.2,Win32,60,5ff3a352adaa099f7659f8cc,,,,,,,,,,,,,,,,,,,,PF,,,,,,,,7,2.261595,,,,,,,,,,,,,,,,,,,,,,,,,2,42,85,1,0,0,response1disk,6,58,2,2,1,0,0,rectangle,2,2,1,0,0,0,3,0,0.004175,2,2,1,0,0,0,57,57,113,1,,,,,,,,,,,,,,,,,,,,,
,,,,,,,,,,,,,,,,,,,,,,,,,,,,,,,,,,,,,,,,,,,5eacad39ef271f3206810eeb,5ff3a3eaf4e2339dadb467c2,2021-01-04_17h26.04.118,Colour_Similarity_Experiment_v1,2020.1.2,Win32,60,5ff3a352adaa099f7659f8cc,,,,,,,,,,,,,,,,,,,,FF,,,,,,,,7,2.375315,,,,,,,,,,,,,,,,,,,,,,,,,3,28,49,1,0,0,response1disk,9,59,1,1,1,0,0,rectangle,1,1,1,0,0,0,4,0,0.003415,1,1,1,0,0,0,58,58,143,1,,,,,,,,,,,,,,,,,,,,,
,,,,,,,,,,,,,,,,,,,,,,,,,,,,,,,,,,,,,,,,,,,5eacad39ef271f3206810eeb,5ff3a3eaf4e2339dadb467c2,2021-01-04_17h26.04.118,Colour_Similarity_Experiment_v1,2020.1.2,Win32,60,5ff3a352adaa099f7659f8cc,,,,,,,,,,,,,,,,,,,,FF,,,,,,,,7,2.131325,,,,,,,,,,,,,,,,,,,,,,,,,2,49,92,1,0,0,response1disk,8,60,3,0,1,0,0,rectangle,3,0,1,0,0,0,2,0,0.00111,3,0,1,0,0,0,59,59,62,1,,,,,,,,,,,,,,,,,,,,,
,,,,,,,,,,,,,,,,,,,,,,,,,,,,,,,,,,,,,,,,,,,5eacad39ef271f3206810eeb,5ff3a3eaf4e2339dadb467c2,2021-01-04_17h26.04.118,Colour_Similarity_Experiment_v1,2020.1.2,Win32,60,5ff3a352adaa099f7659f8cc,,,,,,,,,,,,,,,,,,,,PF,,,,,,,,7,1.70021,,,,,,,,,,,,,,,,,,,,,,,,,1,45,62,1,0,0,response1disk,9,61,0,6,1,0,0,rectangle,0,6,1,0,0,0,1,0,0.00336,0,6,1,0,0,0,60,60,15,1,,,,,,,,,,,,,,,,,,,,,
,,,,,,,,,,,,,,,,,,,,,,,,,,,,,,,,,,,,,,,,,,,5eacad39ef271f3206810eeb,5ff3a3eaf4e2339dadb467c2,2021-01-04_17h26.04.118,Colour_Similarity_Experiment_v1,2020.1.2,Win32,60,5ff3a352adaa099f7659f8cc,,,,,,,,,,,,,,,,,,,,FF,,,,,,,,7,1.497765,,,,,,,,,,,,,,,,,,,,,,,,,9,54,98,1,0,0,response1disk,5,62,-7,13,1,0,0,rectangle,-7,13,1,0,0,0,4,0,0.00175,-7,13,1,0,0,0,61,61,128,1,,,,,,,,,,,,,,,,,,,,,
,,,,,,,,,,,,,,,,,,,,,,,,,,,,,,,,,,,,,,,,,,,5eacad39ef271f3206810eeb,5ff3a3eaf4e2339dadb467c2,2021-01-04_17h26.04.118,Colour_Similarity_Experiment_v1,2020.1.2,Win32,60,5ff3a352adaa099f7659f8cc,,,,,,,,,,,,,,,,,,,,FF,,,,,,,,7,2.4026,,,,,,,,,,,,,,,,,,,,,,,,,6,28,64,1,0,0,response1disk,9,63,2,15,1,0,0,rectangle,-46,90,1,0,0,0,0,1,3.122275,-6,1,1,0,0,0,62,62,160,1,response7disk_3,rectangle,,,,,,,,,,,,,,,,,,,
,,,,,,,,,,,,,,,,,,,,,,,,,,,,,,,,,,,,,,,,,,,5eacad39ef271f3206810eeb,5ff3a3eaf4e2339dadb467c2,2021-01-04_17h26.04.118,Colour_Similarity_Experiment_v1,2020.1.2,Win32,60,5ff3a352adaa099f7659f8cc,,,,,,,,,,,,,,,,,,,,FF,,,,,,,,7,1.751665,,,,,,,,,,,,,,,,,,,,,,,,,8,37,118,1,0,0,response1disk,6,64,5,2,1,0,0,rectangle,5,2,1,0,0,0,4,0,0.003555,5,2,1,0,0,0,63,63,37,1,,,,,,,,,,,,,,,,,,,,,
,,,,,,,,,,,,,,,,,,,,,,,,,,,,,,,,,,,,,,,,,,,5eacad39ef271f3206810eeb,5ff3a3eaf4e2339dadb467c2,2021-01-04_17h26.04.118,Colour_Similarity_Experiment_v1,2020.1.2,Win32,60,5ff3a352adaa099f7659f8cc,,,,,,,,,,,,,,,,,,,,FF,,,,,,,,6,3.75033,,,,,,,,,,,,,,,,,,,,,,,,,3,53,39,1,0,0,response1disk,2,65,15,-2,1,0,0,rectangle,15,-2,1,0,0,0,2,0,0.00214,15,-2,1,0,0,0,64,64,93,1,,,,,,,,,,,,,,,,,,,,,
,,,,,,,,,,,,,,,,,,,,,,,,,,,,,,,,,,,,,,,,,,,5eacad39ef271f3206810eeb,5ff3a3eaf4e2339dadb467c2,2021-01-04_17h26.04.118,Colour_Similarity_Experiment_v1,2020.1.2,Win32,60,5ff3a352adaa099f7659f8cc,,,,,,,,,,,,,,,,,,,,FF,,,,,,,,7,1.419995,,,,,,,,,,,,,,,,,,,,,,,,,1,45,75,1,0,0,response1disk,3,66,3,-1,1,0,0,rectangle,3,-1,1,0,0,0,2,0,0.001245,3,-1,1,0,0,0,65,65,99,1,,,,,,,,,,,,,,,,,,,,,
,,,,,,,,,,,,,,,,,,,,,,,,,,,,,,,,,,,,,,,,,,,5eacad39ef271f3206810eeb,5ff3a3eaf4e2339dadb467c2,2021-01-04_17h26.04.118,Colour_Similarity_Experiment_v1,2020.1.2,Win32,60,5ff3a352adaa099f7659f8cc,,,,,,,,,,,,,,,,,,,,PF,,,,,,,,7,1.743055,,,,,,,,,,,,,,,,,,,,,,,,,9,39,61,1,0,0,response1disk,6,67,8,2,1,0,0,rectangle,8,2,1,0,0,0,3,0,0.00122,8,2,1,0,0,0,66,66,148,1,,,,,,,,,,,,,,,,,,,,,
,,,,,,,,,,,,,,,,,,,,,,,,,,,,,,,,,,,,,,,,,,,5eacad39ef271f3206810eeb,5ff3a3eaf4e2339dadb467c2,2021-01-04_17h26.04.118,Colour_Similarity_Experiment_v1,2020.1.2,Win32,60,5ff3a352adaa099f7659f8cc,,,,,,,,,,,,,,,,,,,,PF,,,,,,,,7,1.27565,,,,,,,,,,,,,,,,,,,,,,,,,5,36,74,1,0,0,response1disk,8,68,10,9,1,0,0,rectangle,10,9,1,0,0,0,2,0,0.002,10,9,1,0,0,0,67,67,149,1,,,,,,,,,,,,,,,,,,,,,
,,,,,,,,,,,,,,,,,,,,,,,,,,,,,,,,,,,,,,,,,,,5eacad39ef271f3206810eeb,5ff3a3eaf4e2339dadb467c2,2021-01-04_17h26.04.118,Colour_Similarity_Experiment_v1,2020.1.2,Win32,60,5ff3a352adaa099f7659f8cc,,,,,,,,,,,,,,,,,,,,PF,,,,,,,,7,5.476905,,,,,,,,,,,,,,,,,,,,,,,,,1,33,56,1,0,0,response1disk,4,69,5,3,1,0,0,rectangle,5,3,1,0,0,0,1,0,0.00162,5,3,1,0,0,0,68,68,139,1,,,,,,,,,,,,,,,,,,,,,
,,,,,,,,,,,,,,,,,,,,,,,,,,,,,,,,,,,,,,,,,,,5eacad39ef271f3206810eeb,5ff3a3eaf4e2339dadb467c2,2021-01-04_17h26.04.118,Colour_Similarity_Experiment_v1,2020.1.2,Win32,60,5ff3a352adaa099f7659f8cc,,,,,,,,,,,,,,,,,,,,PF,,,,,,,,7,2.96317,,,,,,,,,,,,,,,,,,,,,,,,,9,50,92,1,0,0,response1disk,2,70,-2,4,1,0,0,rectangle,-2,4,1,0,0,0,7,0,0.002725,-2,4,1,0,0,0,69,69,157,1,,,,,,,,,,,,,,,,,,,,,
,,,,,,,,,,,,,,,,,,,,,,,,,,,,,,,,,,,,,,,,,,,5eacad39ef271f3206810eeb,5ff3a3eaf4e2339dadb467c2,2021-01-04_17h26.04.118,Colour_Similarity_Experiment_v1,2020.1.2,Win32,60,5ff3a352adaa099f7659f8cc,,,,,,,,,,,,,,,,,,,,PF,,,,,,,,7,1.716685,,,,,,,,,,,,,,,,,,,,,,,,,2,44,80,1,0,0,response1disk,1,71,5,-4,1,0,0,rectangle,5,-4,1,0,0,0,6,0,0.00121,5,-4,1,0,0,0,70,70,9,1,,,,,,,,,,,,,,,,,,,,,
,,,,,,,,,,,,,,,,,,,,,,,,,,,,,,,,,,,,,,,,,,,5eacad39ef271f3206810eeb,5ff3a3eaf4e2339dadb467c2,2021-01-04_17h26.04.118,Colour_Similarity_Experiment_v1,2020.1.2,Win32,60,5ff3a352adaa099f7659f8cc,,,,,,,,,,,,,,,,,,,,PF,,,,,,,,7,1.84163,,,,,,,,,,,,,,,,,,,,,,,,,7,44,57,1,0,0,response1disk,9,72,-1,12,1,0,0,rectangle,-1,12,1,0,0,0,3,0,0.0011,-1,12,1,0,0,0,71,71,10,1,,,,,,,,,,,,,,,,,,,,,
,,,,,,,,,,,,,,,,,,,,,,,,,,,,,,,,,,,,,,,,,,,5eacad39ef271f3206810eeb,5ff3a3eaf4e2339dadb467c2,2021-01-04_17h26.04.118,Colour_Similarity_Experiment_v1,2020.1.2,Win32,60,5ff3a352adaa099f7659f8cc,,,,,,,,,,,,,,,,,,,,PF,,,,,,,,5,3.598485,,,,,,,,,,,,,,,,,,,,,,,,,2,71,-46,1,0,0,response3disk,3,73,12,-11,1,0,0,rectangle,12,-11,1,0,0,0,7,0,0.00122,12,-11,1,0,0,0,72,72,69,1,,,,,,,,,,,,,,,,,,,,,
,,,,,,,,,,,,,,,,,,,,,,,,,,,,,,,,,,,,,,,,,,,5eacad39ef271f3206810eeb,5ff3a3eaf4e2339dadb467c2,2021-01-04_17h26.04.118,Colour_Similarity_Experiment_v1,2020.1.2,Win32,60,5ff3a352adaa099f7659f8cc,,,,,,,,,,,,,,,,,,,,PF,,,,,,,,7,1.99966,,,,,,,,,,,,,,,,,,,,,,,,,5,28,66,1,0,0,response1disk,9,74,2,3,1,0,0,rectangle,-81,-42,1,0,0,0,2,1,3.35854,-24,9,1,0,0,0,73,73,136,1,response5disk_3,rectangle,,,,,,,,,,,,,,,,,,,
,,,,,,,,,,,,,,,,,,,,,,,,,,,,,,,,,,,,,,,,,,,5eacad39ef271f3206810eeb,5ff3a3eaf4e2339dadb467c2,2021-01-04_17h26.04.118,Colour_Similarity_Experiment_v1,2020.1.2,Win32,60,5ff3a352adaa099f7659f8cc,,,,,,,,,,,,,,,,,,,,PF,,,,,,,,7,2.033135,,,,,,,,,,,,,,,,,,,,,,,,,6,25,67,1,0,0,response1disk,2,75,-4,1,1,0,0,rectangle,-4,1,1,0,0,0,7,0,0.002805,-4,1,1,0,0,0,74,74,130,1,,,,,,,,,,,,,,,,,,,,,
,,,,,,,,,,,,,,,,,,,,,,,,,,,,,,,,,,,,,,,,,,,5eacad39ef271f3206810eeb,5ff3a3eaf4e2339dadb467c2,2021-01-04_17h26.04.118,Colour_Similarity_Experiment_v1,2020.1.2,Win32,60,5ff3a352adaa099f7659f8cc,,,,,,,,,,,,,,,,,,,,PF,,,,,,,,7,2.044515,,,,,,,,,,,,,,,,,,,,,,,,,4,32,55,1,0,0,response1disk,9,76,8,7,1,0,0,rectangle,8,7,1,0,0,0,3,0,0.05098,8,7,1,0,0,0,75,75,75,1,,,,,,,,,,,,,,,,,,,,,
,,,,,,,,,,,,,,,,,,,,,,,,,,,,,,,,,,,,,,,,,,,5eacad39ef271f3206810eeb,5ff3a3eaf4e2339dadb467c2,2021-01-04_17h26.04.118,Colour_Similarity_Experiment_v1,2020.1.2,Win32,60,5ff3a352adaa099f7659f8cc,,,,,,,,,,,,,,,,,,,,FF,,,,,,,,7,2.21174,,,,,,,,,,,,,,,,,,,,,,,,,2,43,65,1,0,0,response1disk,6,77,7,5,1,0,0,rectangle,7,5,1,0,0,0,4,0,0.00282,7,5,1,0,0,0,76,76,40,1,,,,,,,,,,,,,,,,,,,,,
,,,,,,,,,,,,,,,,,,,,,,,,,,,,,,,,,,,,,,,,,,,5eacad39ef271f3206810eeb,5ff3a3eaf4e2339dadb467c2,2021-01-04_17h26.04.118,Colour_Similarity_Experiment_v1,2020.1.2,Win32,60,5ff3a352adaa099f7659f8cc,,,,,,,,,,,,,,,,,,,,FF,,,,,,,,0,1.94357,,,,,,,,,,,,,,,,,,,,,,,,,5,-29,52,1,0,0,response7disk,5,78,-4,12,1,0,0,rectangle,-4,12,1,0,0,0,3,0,0.048575,-4,12,1,0,0,0,77,77,19,1,,,,,,,,,,,,,,,,,,,,,
,,,,,,,,,,,,,,,,,,,,,,,,,,,,,,,,,,,,,,,,,,,5eacad39ef271f3206810eeb,5ff3a3eaf4e2339dadb467c2,2021-01-04_17h26.04.118,Colour_Similarity_Experiment_v1,2020.1.2,Win32,60,5ff3a352adaa099f7659f8cc,,,,,,,,,,,,,,,,,,,,FF,,,,,,,,7,2.09902,,,,,,,,,,,,,,,,,,,,,,,,,6,48,83,1,0,0,response1disk,8,79,6,7,1,0,0,rectangle,6,7,1,0,0,0,4,0,0.00144,6,7,1,0,0,0,78,78,133,1,,,,,,,,,,,,,,,,,,,,,
,,,,,,,,,,,,,,,,,,,,,,,,,,,,,,,,,,,,,,,,,,,5eacad39ef271f3206810eeb,5ff3a3eaf4e2339dadb467c2,2021-01-04_17h26.04.118,Colour_Similarity_Experiment_v1,2020.1.2,Win32,60,5ff3a352adaa099f7659f8cc,,,,,,,,,,,,,,,,,,,,FF,,,,,,,,7,1.71667,,,,,,,,,,,,,,,,,,,,,,,,,5,35,57,1,0,0,response1disk,2,80,-3,-3,1,0,0,rectangle,-64,96,1,0,0,0,0,1,2.20674,-9,3,1,0,0,0,79,79,55,1,response7disk_3,rectangle,,,,,,,,,,,,,,,,,,,
,,,,,,,,,,,,,,,,,,,,,,,,,,,,,,,,,,,,,,,,,,,5eacad39ef271f3206810eeb,5ff3a3eaf4e2339dadb467c2,2021-01-04_17h26.04.118,Colour_Similarity_Experiment_v1,2020.1.2,Win32,60,5ff3a352adaa099f7659f8cc,,,,,,,,,,,,,,,,,,,,PF,,,,,,,,7,1.57847,,,,,,,,,,,,,,,,,,,,,,,,,3,55,97,1,0,0,response1disk,7,81,13,3,1,0,0,rectangle,13,3,1,0,0,0,6,0,0.002685,13,3,1,0,0,0,80,80,41,1,,,,,,,,,,,,,,,,,,,,,
,,,,,,,,,,,,,,,,,,,,,,,,,,,,,,,,,,,,,,,,,,,5eacad39ef271f3206810eeb,5ff3a3eaf4e2339dadb467c2,2021-01-04_17h26.04.118,Colour_Similarity_Experiment_v1,2020.1.2,Win32,60,5ff3a352adaa099f7659f8cc,,,,,,,,,,,,,,,,,,,,FF,,,,,,,,5,10.28445,,,,,,,,,,,,,,,,,,,,,,,,,8,58,-41,1,0,0,response3disk,7,82,10,-8,1,0,0,rectangle,10,-8,1,0,0,0,2,0,0.003955,10,-8,1,0,0,0,81,81,86,1,,,,,,,,,,,,,,,,,,,,,
,,,,,,,,,,,,,,,,,,,,,,,,,,,,,,,,,,,,,,,,,,,5eacad39ef271f3206810eeb,5ff3a3eaf4e2339dadb467c2,2021-01-04_17h26.04.118,Colour_Similarity_Experiment_v1,2020.1.2,Win32,60,5ff3a352adaa099f7659f8cc,,,,,,,,,,,,,,,,,,,,FF,,,,,,,,0,1.73185,,,,,,,,,,,,,,,,,,,,,,,,,8,-66,94,1,0,0,response7disk,8,83,-23,0,1,0,0,rectangle,-23,0,1,0,0,0,3,0,0.003165,-23,0,1,0,0,0,82,82,48,1,,,,,,,,,,,,,,,,,,,,,
,,,,,,,,,,,,,,,,,,,,,,,,,,,,,,,,,,,,,,,,,,,5eacad39ef271f3206810eeb,5ff3a3eaf4e2339dadb467c2,2021-01-04_17h26.04.118,Colour_Similarity_Experiment_v1,2020.1.2,Win32,60,5ff3a352adaa099f7659f8cc,,,,,,,,,,,,,,,,,,,,PF,,,,,,,,7,2.012835,,,,,,,,,,,,,,,,,,,,,,,,,1,35,97,1,0,0,response1disk,8,84,7,6,1,0,0,rectangle,7,6,1,0,0,0,3,0,0.001325,7,6,1,0,0,0,83,83,65,1,,,,,,,,,,,,,,,,,,,,,
,,,,,,,,,,,,,,,,,,,,,,,,,,,,,,,,,,,,,,,,,,,5eacad39ef271f3206810eeb,5ff3a3eaf4e2339dadb467c2,2021-01-04_17h26.04.118,Colour_Similarity_Experiment_v1,2020.1.2,Win32,60,5ff3a352adaa099f7659f8cc,,,,,,,,,,,,,,,,,,,,PF,,,,,,,,7,1.696385,,,,,,,,,,,,,,,,,,,,,,,,,9,24,61,1,0,0,response1disk,3,85,-2,-5,1,0,0,rectangle,-2,-5,1,0,0,0,6,0,0.00271,-2,-5,1,0,0,0,84,84,119,1,,,,,,,,,,,,,,,,,,,,,
,,,,,,,,,,,,,,,,,,,,,,,,,,,,,,,,,,,,,,,,,,,5eacad39ef271f3206810eeb,5ff3a3eaf4e2339dadb467c2,2021-01-04_17h26.04.118,Colour_Similarity_Experiment_v1,2020.1.2,Win32,60,5ff3a352adaa099f7659f8cc,,,,,,,,,,,,,,,,,,,,FF,,,,,,,,7,1.56422,,,,,,,,,,,,,,,,,,,,,,,,,3,28,92,1,0,0,response1disk,1,86,10,10,1,0,0,rectangle,10,10,1,0,0,0,3,0,0.0019,10,10,1,0,0,0,85,85,125,1,,,,,,,,,,,,,,,,,,,,,
,,,,,,,,,,,,,,,,,,,,,,,,,,,,,,,,,,,,,,,,,,,5eacad39ef271f3206810eeb,5ff3a3eaf4e2339dadb467c2,2021-01-04_17h26.04.118,Colour_Similarity_Experiment_v1,2020.1.2,Win32,60,5ff3a352adaa099f7659f8cc,,,,,,,,,,,,,,,,,,,,PF,,,,,,,,7,1.65431,,,,,,,,,,,,,,,,,,,,,,,,,4,60,93,1,0,0,response1disk,8,87,10,-10,1,0,0,rectangle,10,-10,1,0,0,0,2,0,0.00281,10,-10,1,0,0,0,86,86,124,1,,,,,,,,,,,,,,,,,,,,,
,,,,,,,,,,,,,,,,,,,,,,,,,,,,,,,,,,,,,,,,,,,5eacad39ef271f3206810eeb,5ff3a3eaf4e2339dadb467c2,2021-01-04_17h26.04.118,Colour_Similarity_Experiment_v1,2020.1.2,Win32,60,5ff3a352adaa099f7659f8cc,,,,,,,,,,,,,,,,,,,,FF,,,,,,,,7,1.60227,,,,,,,,,,,,,,,,,,,,,,,,,1,34,52,1,0,0,response1disk,9,88,-14,-9,1,0,0,rectangle,-14,-9,1,0,0,0,2,0,0.005025,-14,-9,1,0,0,0,87,87,123,1,,,,,,,,,,,,,,,,,,,,,
,,,,,,,,,,,,,,,,,,,,,,,,,,,,,,,,,,,,,,,,,,,5eacad39ef271f3206810eeb,5ff3a3eaf4e2339dadb467c2,2021-01-04_17h26.04.118,Colour_Similarity_Experiment_v1,2020.1.2,Win32,60,5ff3a352adaa099f7659f8cc,,,,,,,,,,,,,,,,,,,,FF,,,,,,,,7,2.08581,,,,,,,,,,,,,,,,,,,,,,,,,9,47,97,1,0,0,response1disk,6,89,1,5,1,0,0,rectangle,1,5,1,0,0,0,5,0,0.0012,1,5,1,0,0,0,88,88,117,1,,,,,,,,,,,,,,,,,,,,,
,,,,,,,,,,,,,,,,,,,,,,,,,,,,,,,,,,,,,,,,,,,5eacad39ef271f3206810eeb,5ff3a3eaf4e2339dadb467c2,2021-01-04_17h26.04.118,Colour_Similarity_Experiment_v1,2020.1.2,Win32,60,5ff3a352adaa099f7659f8cc,,,,,,,,,,,,,,,,,,,,PF,,,,,,,,6,2.15923,,,,,,,,,,,,,,,,,,,,,,,,,3,50,35,1,0,0,response1disk,4,90,9,-15,1,0,0,rectangle,9,-15,1,0,0,0,2,0,0.001185,9,-15,1,0,0,0,89,89,30,1,,,,,,,,,,,,,,,,,,,,,
,,,,,,,,,,,,,,,,,,,,,,,,,,,,,,,,,,,,,,,,,,,5eacad39ef271f3206810eeb,5ff3a3eaf4e2339dadb467c2,2021-01-04_17h26.04.118,Colour_Similarity_Experiment_v1,2020.1.2,Win32,60,5ff3a352adaa099f7659f8cc,,,,,,,,,,,,,,,,,,,,PF,,,,,,,,3,3.96181,,,,,,,,,,,,,,,,,,,,,,,,,4,-43,-99,1,0,0,response5disk,5,91,-1,-10,1,0,0,rectangle,-1,-10,1,0,0,0,5,0,0.002805,-1,-10,1,0,0,0,90,90,49,1,,,,,,,,,,,,,,,,,,,,,
,,,,,,,,,,,,,,,,,,,,,,,,,,,,,,,,,,,,,,,,,,,5eacad39ef271f3206810eeb,5ff3a3eaf4e2339dadb467c2,2021-01-04_17h26.04.118,Colour_Similarity_Experiment_v1,2020.1.2,Win32,60,5ff3a352adaa099f7659f8cc,,,,,,,,,,,,,,,,,,,,PF,,,,,,,,5,2.271785,,,,,,,,,,,,,,,,,,,,,,,,,5,68,-31,1,0,0,response3disk,3,92,-5,7,1,0,0,rectangle,-5,7,1,0,0,0,5,0,0.00251,-5,7,1,0,0,0,91,91,109,1,,,,,,,,,,,,,,,,,,,,,
,,,,,,,,,,,,,,,,,,,,,,,,,,,,,,,,,,,,,,,,,,,5eacad39ef271f3206810eeb,5ff3a3eaf4e2339dadb467c2,2021-01-04_17h26.04.118,Colour_Similarity_Experiment_v1,2020.1.2,Win32,60,5ff3a352adaa099f7659f8cc,,,,,,,,,,,,,,,,,,,,FF,,,,,,,,7,1.6591,,,,,,,,,,,,,,,,,,,,,,,,,7,44,75,1,0,0,response1disk,4,93,-6,4,1,0,0,rectangle,-6,4,1,0,0,0,1,0,0.002775,-6,4,1,0,0,0,92,92,158,1,,,,,,,,,,,,,,,,,,,,,
,,,,,,,,,,,,,,,,,,,,,,,,,,,,,,,,,,,,,,,,,,,5eacad39ef271f3206810eeb,5ff3a3eaf4e2339dadb467c2,2021-01-04_17h26.04.118,Colour_Similarity_Experiment_v1,2020.1.2,Win32,60,5ff3a352adaa099f7659f8cc,,,,,,,,,,,,,,,,,,,,FF,,,,,,,,7,1.62217,,,,,,,,,,,,,,,,,,,,,,,,,8,35,61,1,0,0,response1disk,3,94,0,9,1,0,0,rectangle,0,9,1,0,0,0,4,0,0.001255,0,9,1,0,0,0,93,93,154,1,,,,,,,,,,,,,,,,,,,,,
,,,,,,,,,,,,,,,,,,,,,,,,,,,,,,,,,,,,,,,,,,,5eacad39ef271f3206810eeb,5ff3a3eaf4e2339dadb467c2,2021-01-04_17h26.04.118,Colour_Similarity_Experiment_v1,2020.1.2,Win32,60,5ff3a352adaa099f7659f8cc,,,,,,,,,,,,,,,,,,,,PF,,,,,,,,5,3.600725,,,,,,,,,,,,,,,,,,,,,,,,,5,70,-44,1,0,0,response3disk,4,95,5,-1,1,0,0,rectangle,5,-1,1,0,0,0,2,0,0.001305,5,-1,1,0,0,0,94,94,54,1,,,,,,,,,,,,,,,,,,,,,
,,,,,,,,,,,,,,,,,,,,,,,,,,,,,,,,,,,,,,,,,,,5eacad39ef271f3206810eeb,5ff3a3eaf4e2339dadb467c2,2021-01-04_17h26.04.118,Colour_Similarity_Experiment_v1,2020.1.2,Win32,60,5ff3a352adaa099f7659f8cc,,,,,,,,,,,,,,,,,,,,FF,,,,,,,,7,2.05572,,,,,,,,,,,,,,,,,,,,,,,,,5,21,49,1,0,0,response1disk,9,96,-6,-2,1,0,0,rectangle,-6,-2,1,0,0,0,2,0,0.00134,-6,-2,1,0,0,0,95,95,61,1,,,,,,,,,,,,,,,,,,,,,
,,,,,,,,,,,,,,,,,,,,,,,,,,,,,,,,,,,,,,,,,,,5eacad39ef271f3206810eeb,5ff3a3eaf4e2339dadb467c2,2021-01-04_17h26.04.118,Colour_Similarity_Experiment_v1,2020.1.2,Win32,60,5ff3a352adaa099f7659f8cc,,,,,,,,,,,,,,,,,,,,PF,,,,,,,,7,1.647635,,,,,,,,,,,,,,,,,,,,,,,,,3,32,64,1,0,0,response1disk,1,97,-3,-7,1,0,0,rectangle,-3,-7,1,0,0,0,2,0,0.00173,-3,-7,1,0,0,0,96,96,96,1,,,,,,,,,,,,,,,,,,,,,
,,,,,,,,,,,,,,,,,,,,,,,,,,,,,,,,,,,,,,,,,,,5eacad39ef271f3206810eeb,5ff3a3eaf4e2339dadb467c2,2021-01-04_17h26.04.118,Colour_Similarity_Experiment_v1,2020.1.2,Win32,60,5ff3a352adaa099f7659f8cc,,,,,,,,,,,,,,,,,,,,PF,,,,,,,,0,2.311195,,,,,,,,,,,,,,,,,,,,,,,,,7,-44,69,1,0,0,response7disk,7,98,-8,15,1,0,0,rectangle,-8,15,1,0,0,0,2,0,0.00141,-8,15,1,0,0,0,97,97,51,1,,,,,,,,,,,,,,,,,,,,,
,,,,,,,,,,,,,,,,,,,,,,,,,,,,,,,,,,,,,,,,,,,5eacad39ef271f3206810eeb,5ff3a3eaf4e2339dadb467c2,2021-01-04_17h26.04.118,Colour_Similarity_Experiment_v1,2020.1.2,Win32,60,5ff3a352adaa099f7659f8cc,,,,,,,,,,,,,,,,,,,,FF,,,,,,,,7,1.90475,,,,,,,,,,,,,,,,,,,,,,,,,5,25,65,1,0,0,response1disk,3,99,2,1,1,0,0,rectangle,2,1,1,0,0,0,6,0,0.002655,2,1,1,0,0,0,98,98,25,1,,,,,,,,,,,,,,,,,,,,,
,,,,,,,,,,,,,,,,,,,,,,,,,,,,,,,,,,,,,,,,,,,5eacad39ef271f3206810eeb,5ff3a3eaf4e2339dadb467c2,2021-01-04_17h26.04.118,Colour_Similarity_Experiment_v1,2020.1.2,Win32,60,5ff3a352adaa099f7659f8cc,,,,,,,,,,,,,,,,,,,,PF,,,,,,,,7,1.708285,,,,,,,,,,,,,,,,,,,,,,,,,9,40,81,1,0,0,response1disk,7,100,18,2,1,0,0,rectangle,18,2,1,0,0,0,4,0,0.002895,18,2,1,0,0,0,99,99,121,1,,,,,,,,,,,,,,,,,,,,,
,,,,,,,,,,,,,,,,,,,,,,,,,,,,,,,,,,,,,,,,,,,5eacad39ef271f3206810eeb,5ff3a3eaf4e2339dadb467c2,2021-01-04_17h26.04.118,Colour_Similarity_Experiment_v1,2020.1.2,Win32,60,5ff3a352adaa099f7659f8cc,,,,,,,,,,,,,,,,,,,,FF,,,,,,,,7,1.824455,,,,,,,,,,,,,,,,,,,,,,,,,3,45,65,1,0,0,response1disk,6,101,14,7,1,0,0,rectangle,14,7,1,0,0,0,2,0,0.00123,14,7,1,0,0,0,100,100,95,1,,,,,,,,,,,,,,,,,,,,,
,,,,,,,,,,,,,,,,,,,,,,,,,,,,,,,,,,,,,,,,,,,5eacad39ef271f3206810eeb,5ff3a3eaf4e2339dadb467c2,2021-01-04_17h26.04.118,Colour_Similarity_Experiment_v1,2020.1.2,Win32,60,5ff3a352adaa099f7659f8cc,,,,,,,,,,,,,,,,,,,,FF,,,,,,,,7,1.70538,,,,,,,,,,,,,,,,,,,,,,,,,2,54,97,1,0,0,response1disk,7,102,20,-5,1,0,0,rectangle,20,-5,1,0,0,0,6,0,0.00117,20,-5,1,0,0,0,101,101,63,1,,,,,,,,,,,,,,,,,,,,,
,,,,,,,,,,,,,,,,,,,,,,,,,,,,,,,,,,,,,,,,,,,5eacad39ef271f3206810eeb,5ff3a3eaf4e2339dadb467c2,2021-01-04_17h26.04.118,Colour_Similarity_Experiment_v1,2020.1.2,Win32,60,5ff3a352adaa099f7659f8cc,,,,,,,,,,,,,,,,,,,,PF,,,,,,,,7,1.261135,,,,,,,,,,,,,,,,,,,,,,,,,6,43,70,1,0,0,response1disk,8,103,-6,13,1,0,0,rectangle,-6,13,1,0,0,0,5,0,0.00141,-6,13,1,0,0,0,102,102,64,1,,,,,,,,,,,,,,,,,,,,,
,,,,,,,,,,,,,,,,,,,,,,,,,,,,,,,,,,,,,,,,,,,5eacad39ef271f3206810eeb,5ff3a3eaf4e2339dadb467c2,2021-01-04_17h26.04.118,Colour_Similarity_Experiment_v1,2020.1.2,Win32,60,5ff3a352adaa099f7659f8cc,,,,,,,,,,,,,,,,,,,,PF,,,,,,,,7,1.555435,,,,,,,,,,,,,,,,,,,,,,,,,6,21,51,1,0,0,response1disk,1,104,-6,-1,1,0,0,rectangle,-6,-1,1,0,0,0,7,0,0.00201,-6,-1,1,0,0,0,103,103,46,1,,,,,,,,,,,,,,,,,,,,,
,,,,,,,,,,,,,,,,,,,,,,,,,,,,,,,,,,,,,,,,,,,5eacad39ef271f3206810eeb,5ff3a3eaf4e2339dadb467c2,2021-01-04_17h26.04.118,Colour_Similarity_Experiment_v1,2020.1.2,Win32,60,5ff3a352adaa099f7659f8cc,,,,,,,,,,,,,,,,,,,,PF,,,,,,,,7,1.217945,,,,,,,,,,,,,,,,,,,,,,,,,8,27,75,1,0,0,response1disk,2,105,1,8,1,0,0,rectangle,1,8,1,0,0,0,6,0,0.001195,1,8,1,0,0,0,104,104,83,1,,,,,,,,,,,,,,,,,,,,,
,,,,,,,,,,,,,,,,,,,,,,,,,,,,,,,,,,,,,,,,,,,5eacad39ef271f3206810eeb,5ff3a3eaf4e2339dadb467c2,2021-01-04_17h26.04.118,Colour_Similarity_Experiment_v1,2020.1.2,Win32,60,5ff3a352adaa099f7659f8cc,,,,,,,,,,,,,,,,,,,,PF,,,,,,,,7,1.54961,,,,,,,,,,,,,,,,,,,,,,,,,7,17,64,1,0,0,response1disk,2,106,9,6,1,0,0,rectangle,9,6,1,0,0,0,5,0,0.002545,9,6,1,0,0,0,105,105,32,1,,,,,,,,,,,,,,,,,,,,,
,,,,,,,,,,,,,,,,,,,,,,,,,,,,,,,,,,,,,,,,,,,5eacad39ef271f3206810eeb,5ff3a3eaf4e2339dadb467c2,2021-01-04_17h26.04.118,Colour_Similarity_Experiment_v1,2020.1.2,Win32,60,5ff3a352adaa099f7659f8cc,,,,,,,,,,,,,,,,,,,,PF,,,,,,,,7,2.10332,,,,,,,,,,,,,,,,,,,,,,,,,4,29,64,1,0,0,response1disk,6,107,19,4,1,0,0,rectangle,19,4,1,0,0,0,4,0,0.0012,19,4,1,0,0,0,106,106,120,1,,,,,,,,,,,,,,,,,,,,,
,,,,,,,,,,,,,,,,,,,,,,,,,,,,,,,,,,,,,,,,,,,5eacad39ef271f3206810eeb,5ff3a3eaf4e2339dadb467c2,2021-01-04_17h26.04.118,Colour_Similarity_Experiment_v1,2020.1.2,Win32,60,5ff3a352adaa099f7659f8cc,,,,,,,,,,,,,,,,,,,,FF,,,,,,,,7,2.52068,,,,,,,,,,,,,,,,,,,,,,,,,2,69,107,1,0,0,response1disk,1,108,20,11,1,0,0,rectangle,20,11,1,0,0,0,0,0,0.0029,20,11,1,0,0,0,107,107,85,1,,,,,,,,,,,,,,,,,,,,,
,,,,,,,,,,,,,,,,,,,,,,,,,,,,,,,,,,,,,,,,,,,5eacad39ef271f3206810eeb,5ff3a3eaf4e2339dadb467c2,2021-01-04_17h26.04.118,Colour_Similarity_Experiment_v1,2020.1.2,Win32,60,5ff3a352adaa099f7659f8cc,,,,,,,,,,,,,,,,,,,,FF,,,,,,,,7,2.7161,,,,,,,,,,,,,,,,,,,,,,,,,9,26,62,1,0,0,response1disk,4,109,9,6,1,0,0,rectangle,9,6,1,0,0,0,2,0,0.001385,9,6,1,0,0,0,108,108,60,1,,,,,,,,,,,,,,,,,,,,,
,,,,,,,,,,,,,,,,,,,,,,,,,,,,,,,,,,,,,,,,,,,5eacad39ef271f3206810eeb,5ff3a3eaf4e2339dadb467c2,2021-01-04_17h26.04.118,Colour_Similarity_Experiment_v1,2020.1.2,Win32,60,5ff3a352adaa099f7659f8cc,,,,,,,,,,,,,,,,,,,,FF,,,,,,,,7,1.98259,,,,,,,,,,,,,,,,,,,,,,,,,1,35,80,1,0,0,response1disk,2,110,8,3,1,0,0,rectangle,8,3,1,0,0,0,7,0,0.001215,8,3,1,0,0,0,109,109,2,1,,,,,,,,,,,,,,,,,,,,,
,,,,,,,,,,,,,,,,,,,,,,,,,,,,,,,,,,,,,,,,,,,5eacad39ef271f3206810eeb,5ff3a3eaf4e2339dadb467c2,2021-01-04_17h26.04.118,Colour_Similarity_Experiment_v1,2020.1.2,Win32,60,5ff3a352adaa099f7659f8cc,,,,,,,,,,,,,,,,,,,,FF,,,,,,,,7,1.696235,,,,,,,,,,,,,,,,,,,,,,,,,4,36,67,1,0,0,response1disk,2,111,20,15,1,0,0,rectangle,20,15,1,0,0,6,4,0,0.002875,20,15,1,0,0,0,110,110,13,1,,,,,,,,,,,,,,,,,,,,,
,,,,,,,,,,,,,,,,,,,,,,,,,,,,,,,,,,,,,,,,,,,5eacad39ef271f3206810eeb,5ff3a3eaf4e2339dadb467c2,2021-01-04_17h26.04.118,Colour_Similarity_Experiment_v1,2020.1.2,Win32,60,5ff3a352adaa099f7659f8cc,,,,,,,,,,,,,,,,,,,,PF,,,,,,,,7,1.19139,,,,,,,,,,,,,,,,,,,,,,,,,4,34,81,1,0,0,response1disk,7,112,10,8,1,0,0,rectangle,10,8,1,0,0,6,5,0,0.00263,10,8,1,0,0,0,111,111,38,1,,,,,,,,,,,,,,,,,,,,,
,,,,,,,,,,,,,,,,,,,,,,,,,,,,,,,,,,,,,,,,,,,5eacad39ef271f3206810eeb,5ff3a3eaf4e2339dadb467c2,2021-01-04_17h26.04.118,Colour_Similarity_Experiment_v1,2020.1.2,Win32,60,5ff3a352adaa099f7659f8cc,,,,,,,,,,,,,,,,,,,,PF,,,,,,,,7,1.10553,,,,,,,,,,,,,,,,,,,,,,,,,5,26,45,1,0,0,response1disk,1,113,17,5,1,0,0,rectangle,-69,-23,1,0,0,6,2,1,2.85694,-25,8,1,0,0,0,112,112,159,1,response5disk_3,rectangle,,,,,,,,,,,,,,,,,,,
,,,,,,,,,,,,,,,,,,,,,,,,,,,,,,,,,,,,,,,,,,,5eacad39ef271f3206810eeb,5ff3a3eaf4e2339dadb467c2,2021-01-04_17h26.04.118,Colour_Similarity_Experiment_v1,2020.1.2,Win32,60,5ff3a352adaa099f7659f8cc,,,,,,,,,,,,,,,,,,,,PF,,,,,,,,7,3.13601,,,,,,,,,,,,,,,,,,,,,,,,,6,32,77,1,0,0,response1disk,4,114,9,-10,1,0,0,rectangle,9,-10,1,0,0,6,2,0,0.00114,9,-10,1,0,0,0,113,113,33,1,,,,,,,,,,,,,,,,,,,,,
,,,,,,,,,,,,,,,,,,,,,,,,,,,,,,,,,,,,,,,,,,,5eacad39ef271f3206810eeb,5ff3a3eaf4e2339dadb467c2,2021-01-04_17h26.04.118,Colour_Similarity_Experiment_v1,2020.1.2,Win32,60,5ff3a352adaa099f7659f8cc,,,,,,,,,,,,,,,,,,,,PF,,,,,,,,7,1.6188,,,,,,,,,,,,,,,,,,,,,,,,,3,21,45,1,0,0,response1disk,8,115,-1,-5,1,0,0,rectangle,-1,-5,1,0,0,6,0,0,0.00296,-1,-5,1,0,0,0,114,114,3,1,,,,,,,,,,,,,,,,,,,,,
,,,,,,,,,,,,,,,,,,,,,,,,,,,,,,,,,,,,,,,,,,,5eacad39ef271f3206810eeb,5ff3a3eaf4e2339dadb467c2,2021-01-04_17h26.04.118,Colour_Similarity_Experiment_v1,2020.1.2,Win32,60,5ff3a352adaa099f7659f8cc,,,,,,,,,,,,,,,,,,,,PF,,,,,,,,0,1.85606,,,,,,,,,,,,,,,,,,,,,,,,,8,-45,61,1,0,0,response7disk,8,116,-7,5,1,0,0,rectangle,-7,5,1,0,0,6,2,0,0.001645,-7,5,1,0,0,0,115,115,153,1,,,,,,,,,,,,,,,,,,,,,
,,,,,,,,,,,,,,,,,,,,,,,,,,,,,,,,,,,,,,,,,,,5eacad39ef271f3206810eeb,5ff3a3eaf4e2339dadb467c2,2021-01-04_17h26.04.118,Colour_Similarity_Experiment_v1,2020.1.2,Win32,60,5ff3a352adaa099f7659f8cc,,,,,,,,,,,,,,,,,,,,PF,,,,,,,,7,1.42328,,,,,,,,,,,,,,,,,,,,,,,,,1,60,86,1,0,0,response1disk,7,117,-9,10,1,0,0,rectangle,-9,10,1,0,0,6,5,0,0.002605,-9,10,1,0,0,0,116,116,150,1,,,,,,,,,,,,,,,,,,,,,
,,,,,,,,,,,,,,,,,,,,,,,,,,,,,,,,,,,,,,,,,,,5eacad39ef271f3206810eeb,5ff3a3eaf4e2339dadb467c2,2021-01-04_17h26.04.118,Colour_Similarity_Experiment_v1,2020.1.2,Win32,60,5ff3a352adaa099f7659f8cc,,,,,,,,,,,,,,,,,,,,PF,,,,,,,,7,1.422815,,,,,,,,,,,,,,,,,,,,,,,,,9,32,80,1,0,0,response1disk,4,118,12,9,1,0,0,rectangle,12,9,1,0,0,6,5,0,0.003245,12,9,1,0,0,0,117,117,114,1,,,,,,,,,,,,,,,,,,,,,
,,,,,,,,,,,,,,,,,,,,,,,,,,,,,,,,,,,,,,,,,,,5eacad39ef271f3206810eeb,5ff3a3eaf4e2339dadb467c2,2021-01-04_17h26.04.118,Colour_Similarity_Experiment_v1,2020.1.2,Win32,60,5ff3a352adaa099f7659f8cc,,,,,,,,,,,,,,,,,,,,PF,,,,,,,,7,1.91006,,,,,,,,,,,,,,,,,,,,,,,,,3,34,59,1,0,0,response1disk,6,119,7,4,1,0,0,rectangle,7,4,1,0,0,6,4,0,0.00281,7,4,1,0,0,0,118,118,47,1,,,,,,,,,,,,,,,,,,,,,
,,,,,,,,,,,,,,,,,,,,,,,,,,,,,,,,,,,,,,,,,,,5eacad39ef271f3206810eeb,5ff3a3eaf4e2339dadb467c2,2021-01-04_17h26.04.118,Colour_Similarity_Experiment_v1,2020.1.2,Win32,60,5ff3a352adaa099f7659f8cc,,,,,,,,,,,,,,,,,,,,FF,,,,,,,,7,2.697855,,,,,,,,,,,,,,,,,,,,,,,,,5,29,76,1,0,0,response1disk,8,120,1,2,1,0,0,rectangle,1,2,1,0,0,6,2,0,0.004305,1,2,1,0,0,0,119,119,16,1,,,,,,,,,,,,,,,,,,,,,
,,,,,,,,,,,,,,,,,,,,,,,,,,,,,,,,,,,,,,,,,,,5eacad39ef271f3206810eeb,5ff3a3eaf4e2339dadb467c2,2021-01-04_17h26.04.118,Colour_Similarity_Experiment_v1,2020.1.2,Win32,60,5ff3a352adaa099f7659f8cc,,,,,,,,,,,,,,,,,,,,PF,,,,,,,,7,4.094265,,,,,,,,,,,,,,,,,,,,,,,,,2,47,63,1,0,0,response1disk,7,121,-5,6,1,0,0,rectangle,-5,6,1,0,0,6,1,0,0.001235,-5,6,1,0,0,0,120,120,107,1,,,,,,,,,,,,,,,,,,,,,
,,,,,,,,,,,,,,,,,,,,,,,,,,,,,,,,,,,,,,,,,,,5eacad39ef271f3206810eeb,5ff3a3eaf4e2339dadb467c2,2021-01-04_17h26.04.118,Colour_Similarity_Experiment_v1,2020.1.2,Win32,60,5ff3a352adaa099f7659f8cc,,,,,,,,,,,,,,,,,,,,PF,,,,,,,,7,1.600085,,,,,,,,,,,,,,,,,,,,,,,,,9,23,59,1,0,0,response1disk,5,122,7,10,1,0,0,rectangle,7,10,1,0,0,6,0,0,0.002685,7,10,1,0,0,0,121,121,134,1,,,,,,,,,,,,,,,,,,,,,
,,,,,,,,,,,,,,,,,,,,,,,,,,,,,,,,,,,,,,,,,,,5eacad39ef271f3206810eeb,5ff3a3eaf4e2339dadb467c2,2021-01-04_17h26.04.118,Colour_Similarity_Experiment_v1,2020.1.2,Win32,60,5ff3a352adaa099f7659f8cc,,,,,,,,,,,,,,,,,,,,FF,,,,,,,,7,1.53153,,,,,,,,,,,,,,,,,,,,,,,,,1,26,50,1,0,0,response1disk,6,123,10,-2,1,0,0,rectangle,10,-2,1,0,0,6,2,0,0.001215,10,-2,1,0,0,0,122,122,58,1,,,,,,,,,,,,,,,,,,,,,
,,,,,,,,,,,,,,,,,,,,,,,,,,,,,,,,,,,,,,,,,,,5eacad39ef271f3206810eeb,5ff3a3eaf4e2339dadb467c2,2021-01-04_17h26.04.118,Colour_Similarity_Experiment_v1,2020.1.2,Win32,60,5ff3a352adaa099f7659f8cc,,,,,,,,,,,,,,,,,,,,FF,,,,,,,,5,2.764465,,,,,,,,,,,,,,,,,,,,,,,,,2,68,-29,1,0,0,response3disk,3,124,-5,0,1,0,0,rectangle,-51,-40,1,0,0,6,2,1,2.71821,-15,-2,1,0,0,0,123,123,104,1,response5disk_3,rectangle,,,,,,,,,,,,,,,,,,,
,,,,,,,,,,,,,,,,,,,,,,,,,,,,,,,,,,,,,,,,,,,5eacad39ef271f3206810eeb,5ff3a3eaf4e2339dadb467c2,2021-01-04_17h26.04.118,Colour_Similarity_Experiment_v1,2020.1.2,Win32,60,5ff3a352adaa099f7659f8cc,,,,,,,,,,,,,,,,,,,,FF,,,,,,,,7,3.476375,,,,,,,,,,,,,,,,,,,,,,,,,1,18,51,1,0,0,response1disk,5,125,-8,-5,1,0,0,rectangle,-8,-5,1,0,0,6,1,0,0.001265,-8,-5,1,0,0,0,124,124,82,1,,,,,,,,,,,,,,,,,,,,,
,,,,,,,,,,,,,,,,,,,,,,,,,,,,,,,,,,,,,,,,,,,5eacad39ef271f3206810eeb,5ff3a3eaf4e2339dadb467c2,2021-01-04_17h26.04.118,Colour_Similarity_Experiment_v1,2020.1.2,Win32,60,5ff3a352adaa099f7659f8cc,,,,,,,,,,,,,,,,,,,,PF,,,,,,,,7,3.153905,,,,,,,,,,,,,,,,,,,,,,,,,7,28,57,1,0,0,response1disk,3,126,4,-2,1,0,0,rectangle,4,-2,1,0,0,6,7,0,0.001725,4,-2,1,0,0,0,125,125,81,1,,,,,,,,,,,,,,,,,,,,,
,,,,,,,,,,,,,,,,,,,,,,,,,,,,,,,,,,,,,,,,,,,5eacad39ef271f3206810eeb,5ff3a3eaf4e2339dadb467c2,2021-01-04_17h26.04.118,Colour_Similarity_Experiment_v1,2020.1.2,Win32,60,5ff3a352adaa099f7659f8cc,,,,,,,,,,,,,,,,,,,,FF,,,,,,,,7,1.463465,,,,,,,,,,,,,,,,,,,,,,,,,7,30,47,1,0,0,response1disk,8,127,6,15,1,0,0,rectangle,-62,-30,1,0,0,6,2,1,2.72981,-3,-2,1,0,0,0,126,126,97,1,response5disk_3,rectangle,,,,,,,,,,,,,,,,,,,
,,,,,,,,,,,,,,,,,,,,,,,,,,,,,,,,,,,,,,,,,,,5eacad39ef271f3206810eeb,5ff3a3eaf4e2339dadb467c2,2021-01-04_17h26.04.118,Colour_Similarity_Experiment_v1,2020.1.2,Win32,60,5ff3a352adaa099f7659f8cc,,,,,,,,,,,,,,,,,,,,PF,,,,,,,,7,2.31201,,,,,,,,,,,,,,,,,,,,,,,,,5,25,46,1,0,0,response1disk,7,128,7,6,1,0,0,rectangle,7,6,1,0,0,6,2,0,0.00692,7,6,1,0,0,0,127,127,146,1,,,,,,,,,,,,,,,,,,,,,
,,,,,,,,,,,,,,,,,,,,,,,,,,,,,,,,,,,,,,,,,,,5eacad39ef271f3206810eeb,5ff3a3eaf4e2339dadb467c2,2021-01-04_17h26.04.118,Colour_Similarity_Experiment_v1,2020.1.2,Win32,60,5ff3a352adaa099f7659f8cc,,,,,,,,,,,,,,,,,,,,FF,,,,,,,,7,2.209705,,,,,,,,,,,,,,,,,,,,,,,,,7,40,57,1,0,0,response1disk,5,129,9,2,1,0,0,rectangle,9,2,1,0,0,6,6,0,0.002465,9,2,1,0,0,0,128,128,156,1,,,,,,,,,,,,,,,,,,,,,
,,,,,,,,,,,,,,,,,,,,,,,,,,,,,,,,,,,,,,,,,,,5eacad39ef271f3206810eeb,5ff3a3eaf4e2339dadb467c2,2021-01-04_17h26.04.118,Colour_Similarity_Experiment_v1,2020.1.2,Win32,60,5ff3a352adaa099f7659f8cc,,,,,,,,,,,,,,,,,,,,FF,,,,,,,,7,2.886605,,,,,,,,,,,,,,,,,,,,,,,,,6,41,69,1,0,0,response1disk,3,130,15,2,1,0,0,rectangle,15,2,1,0,0,6,1,0,0.001495,15,2,1,0,0,0,129,129,21,1,,,,,,,,,,,,,,,,,,,,,
,,,,,,,,,,,,,,,,,,,,,,,,,,,,,,,,,,,,,,,,,,,5eacad39ef271f3206810eeb,5ff3a3eaf4e2339dadb467c2,2021-01-04_17h26.04.118,Colour_Similarity_Experiment_v1,2020.1.2,Win32,60,5ff3a352adaa099f7659f8cc,,,,,,,,,,,,,,,,,,,,PF,,,,,,,,7,2.243535,,,,,,,,,,,,,,,,,,,,,,,,,8,45,74,1,0,0,response1disk,7,131,13,-1,1,0,0,rectangle,13,-1,1,0,0,6,5,0,0.003385,13,-1,1,0,0,0,130,130,23,1,,,,,,,,,,,,,,,,,,,,,
,,,,,,,,,,,,,,,,,,,,,,,,,,,,,,,,,,,,,,,,,,,5eacad39ef271f3206810eeb,5ff3a3eaf4e2339dadb467c2,2021-01-04_17h26.04.118,Colour_Similarity_Experiment_v1,2020.1.2,Win32,60,5ff3a352adaa099f7659f8cc,,,,,,,,,,,,,,,,,,,,FF,,,,,,,,7,2.146075,,,,,,,,,,,,,,,,,,,,,,,,,1,29,47,1,0,0,response1disk,8,132,-2,6,1,0,0,rectangle,-2,6,1,0,0,6,6,0,0.00139,-2,6,1,0,0,0,131,131,27,1,,,,,,,,,,,,,,,,,,,,,
,,,,,,,,,,,,,,,,,,,,,,,,,,,,,,,,,,,,,,,,,,,5eacad39ef271f3206810eeb,5ff3a3eaf4e2339dadb467c2,2021-01-04_17h26.04.118,Colour_Similarity_Experiment_v1,2020.1.2,Win32,60,5ff3a352adaa099f7659f8cc,,,,,,,,,,,,,,,,,,,,FF,,,,,,,,7,2.75539,,,,,,,,,,,,,,,,,,,,,,,,,7,29,65,1,0,0,response1disk,9,133,2,10,1,0,0,rectangle,2,10,1,0,0,6,7,0,0.00274,2,10,1,0,0,0,132,132,155,1,,,,,,,,,,,,,,,,,,,,,
,,,,,,,,,,,,,,,,,,,,,,,,,,,,,,,,,,,,,,,,,,,5eacad39ef271f3206810eeb,5ff3a3eaf4e2339dadb467c2,2021-01-04_17h26.04.118,Colour_Similarity_Experiment_v1,2020.1.2,Win32,60,5ff3a352adaa099f7659f8cc,,,,,,,,,,,,,,,,,,,,FF,,,,,,,,7,4.168005,,,,,,,,,,,,,,,,,,,,,,,,,5,25,46,1,0,0,response1disk,1,134,5,-1,1,0,0,rectangle,5,-1,1,0,0,6,7,0,0.002855,5,-1,1,0,0,0,133,133,131,1,,,,,,,,,,,,,,,,,,,,,
,,,,,,,,,,,,,,,,,,,,,,,,,,,,,,,,,,,,,,,,,,,5eacad39ef271f3206810eeb,5ff3a3eaf4e2339dadb467c2,2021-01-04_17h26.04.118,Colour_Similarity_Experiment_v1,2020.1.2,Win32,60,5ff3a352adaa099f7659f8cc,,,,,,,,,,,,,,,,,,,,FF,,,,,,,,7,1.588965,,,,,,,,,,,,,,,,,,,,,,,,,4,28,38,1,0,0,response1disk,8,135,15,5,1,0,0,rectangle,15,5,1,0,0,6,0,0,0.003095,15,5,1,0,0,0,134,134,35,1,,,,,,,,,,,,,,,,,,,,,
,,,,,,,,,,,,,,,,,,,,,,,,,,,,,,,,,,,,,,,,,,,5eacad39ef271f3206810eeb,5ff3a3eaf4e2339dadb467c2,2021-01-04_17h26.04.118,Colour_Similarity_Experiment_v1,2020.1.2,Win32,60,5ff3a352adaa099f7659f8cc,,,,,,,,,,,,,,,,,,,,FF,,,,,,,,7,1.60121,,,,,,,,,,,,,,,,,,,,,,,,,9,29,58,1,0,0,response1disk,1,136,7,-5,1,0,0,rectangle,7,-5,1,0,0,6,7,0,0.001385,7,-5,1,0,0,0,135,135,111,1,,,,,,,,,,,,,,,,,,,,,
,,,,,,,,,,,,,,,,,,,,,,,,,,,,,,,,,,,,,,,,,,,5eacad39ef271f3206810eeb,5ff3a3eaf4e2339dadb467c2,2021-01-04_17h26.04.118,Colour_Similarity_Experiment_v1,2020.1.2,Win32,60,5ff3a352adaa099f7659f8cc,,,,,,,,,,,,,,,,,,,,PF,,,,,,,,7,1.677585,,,,,,,,,,,,,,,,,,,,,,,,,6,24,51,1,0,0,response1disk,3,137,6,4,1,0,0,rectangle,6,4,1,0,0,6,4,0,0.002745,6,4,1,0,0,0,136,136,26,1,,,,,,,,,,,,,,,,,,,,,
,,,,,,,,,,,,,,,,,,,,,,,,,,,,,,,,,,,,,,,,,,,5eacad39ef271f3206810eeb,5ff3a3eaf4e2339dadb467c2,2021-01-04_17h26.04.118,Colour_Similarity_Experiment_v1,2020.1.2,Win32,60,5ff3a352adaa099f7659f8cc,,,,,,,,,,,,,,,,,,,,FF,,,,,,,,7,2.240735,,,,,,,,,,,,,,,,,,,,,,,,,6,36,64,1,0,0,response1disk,2,138,13,-14,1,0,0,rectangle,13,-14,1,0,0,6,5,0,0.00142,13,-14,1,0,0,0,137,137,112,1,,,,,,,,,,,,,,,,,,,,,
,,,,,,,,,,,,,,,,,,,,,,,,,,,,,,,,,,,,,,,,,,,5eacad39ef271f3206810eeb,5ff3a3eaf4e2339dadb467c2,2021-01-04_17h26.04.118,Colour_Similarity_Experiment_v1,2020.1.2,Win32,60,5ff3a352adaa099f7659f8cc,,,,,,,,,,,,,,,,,,,,PF,,,,,,,,7,1.460265,,,,,,,,,,,,,,,,,,,,,,,,,2,27,63,1,0,0,response1disk,9,139,7,-2,1,0,0,rectangle,7,-2,1,0,0,6,1,0,0.00244,7,-2,1,0,0,0,138,138,39,1,,,,,,,,,,,,,,,,,,,,,
,,,,,,,,,,,,,,,,,,,,,,,,,,,,,,,,,,,,,,,,,,,5eacad39ef271f3206810eeb,5ff3a3eaf4e2339dadb467c2,2021-01-04_17h26.04.118,Colour_Similarity_Experiment_v1,2020.1.2,Win32,60,5ff3a352adaa099f7659f8cc,,,,,,,,,,,,,,,,,,,,FF,,,,,,,,7,2.17684,,,,,,,,,,,,,,,,,,,,,,,,,4,54,93,1,0,0,response1disk,6,140,19,2,1,0,0,rectangle,19,2,1,0,0,6,4,0,0.00122,19,2,1,0,0,0,139,139,122,1,,,,,,,,,,,,,,,,,,,,,
,,,,,,,,,,,,,,,,,,,,,,,,,,,,,,,,,,,,,,,,,,,5eacad39ef271f3206810eeb,5ff3a3eaf4e2339dadb467c2,2021-01-04_17h26.04.118,Colour_Similarity_Experiment_v1,2020.1.2,Win32,60,5ff3a352adaa099f7659f8cc,,,,,,,,,,,,,,,,,,,,PF,,,,,,,,0,2.22185,,,,,,,,,,,,,,,,,,,,,,,,,6,-42,66,1,0,0,response7disk,6,141,-9,1,1,0,0,rectangle,-9,1,1,0,0,6,4,0,0.001095,-9,1,1,0,0,0,140,140,0,1,,,,,,,,,,,,,,,,,,,,,
,,,,,,,,,,,,,,,,,,,,,,,,,,,,,,,,,,,,,,,,,,,5eacad39ef271f3206810eeb,5ff3a3eaf4e2339dadb467c2,2021-01-04_17h26.04.118,Colour_Similarity_Experiment_v1,2020.1.2,Win32,60,5ff3a352adaa099f7659f8cc,,,,,,,,,,,,,,,,,,,,FF,,,,,,,,7,1.51975,,,,,,,,,,,,,,,,,,,,,,,,,3,33,88,1,0,0,response1disk,8,142,12,6,1,0,0,rectangle,12,6,1,0,0,6,7,0,0.00117,12,6,1,0,0,0,141,141,44,1,,,,,,,,,,,,,,,,,,,,,
,,,,,,,,,,,,,,,,,,,,,,,,,,,,,,,,,,,,,,,,,,,5eacad39ef271f3206810eeb,5ff3a3eaf4e2339dadb467c2,2021-01-04_17h26.04.118,Colour_Similarity_Experiment_v1,2020.1.2,Win32,60,5ff3a352adaa099f7659f8cc,,,,,,,,,,,,,,,,,,,,FF,,,,,,,,7,1.688065,,,,,,,,,,,,,,,,,,,,,,,,,5,28,56,1,0,0,response1disk,7,143,4,-6,1,0,0,rectangle,4,-6,1,0,0,6,1,0,0.002475,4,-6,1,0,0,0,142,142,7,1,,,,,,,,,,,,,,,,,,,,,
,,,,,,,,,,,,,,,,,,,,,,,,,,,,,,,,,,,,,,,,,,,5eacad39ef271f3206810eeb,5ff3a3eaf4e2339dadb467c2,2021-01-04_17h26.04.118,Colour_Similarity_Experiment_v1,2020.1.2,Win32,60,5ff3a352adaa099f7659f8cc,,,,,,,,,,,,,,,,,,,,FF,,,,,,,,0,2.226785,,,,,,,,,,,,,,,,,,,,,,,,,4,-36,84,1,0,0,response7disk,4,144,-5,-1,1,0,0,rectangle,-5,-1,1,0,0,6,2,0,0.00292,-5,-1,1,0,0,0,143,143,84,1,,,,,,,,,,,,,,,,,,,,,
,,,,,,,,,,,,,,,,,,,,,,,,,,,,,,,,,,,,,,,,,,,5eacad39ef271f3206810eeb,5ff3a3eaf4e2339dadb467c2,2021-01-04_17h26.04.118,Colour_Similarity_Experiment_v1,2020.1.2,Win32,60,5ff3a352adaa099f7659f8cc,,,,,,,,,,,,,,,,,,,,FF,,,,,,,,5,2.98948,,,,,,,,,,,,,,,,,,,,,,,,,3,75,-23,1,0,0,response3disk,4,145,-21,-4,1,0,0,rectangle,-21,-4,1,0,0,6,0,0,0.001685,-21,-4,1,0,0,0,144,144,110,1,,,,,,,,,,,,,,,,,,,,,
,,,,,,,,,,,,,,,,,,,,,,,,,,,,,,,,,,,,,,,,,,,5eacad39ef271f3206810eeb,5ff3a3eaf4e2339dadb467c2,2021-01-04_17h26.04.118,Colour_Similarity_Experiment_v1,2020.1.2,Win32,60,5ff3a352adaa099f7659f8cc,,,,,,,,,,,,,,,,,,,,FF,,,,,,,,5,5.73173,,,,,,,,,,,,,,,,,,,,,,,,,9,79,-20,1,0,0,response3disk,9,146,13,6,1,0,0,rectangle,13,6,1,0,0,6,3,0,0.0011,13,6,1,0,0,0,145,145,17,1,,,,,,,,,,,,,,,,,,,,,
,,,,,,,,,,,,,,,,,,,,,,,,,,,,,,,,,,,,,,,,,,,5eacad39ef271f3206810eeb,5ff3a3eaf4e2339dadb467c2,2021-01-04_17h26.04.118,Colour_Similarity_Experiment_v1,2020.1.2,Win32,60,5ff3a352adaa099f7659f8cc,,,,,,,,,,,,,,,,,,,,PF,,,,,,,,7,1.6722,,,,,,,,,,,,,,,,,,,,,,,,,6,39,63,1,0,0,response1disk,9,147,12,12,1,0,0,rectangle,12,12,1,0,0,6,7,0,0.002855,12,12,1,0,0,0,146,146,45,1,,,,,,,,,,,,,,,,,,,,,
,,,,,,,,,,,,,,,,,,,,,,,,,,,,,,,,,,,,,,,,,,,5eacad39ef271f3206810eeb,5ff3a3eaf4e2339dadb467c2,2021-01-04_17h26.04.118,Colour_Similarity_Experiment_v1,2020.1.2,Win32,60,5ff3a352adaa099f7659f8cc,,,,,,,,,,,,,,,,,,,,PF,,,,,,,,7,1.62774,,,,,,,,,,,,,,,,,,,,,,,,,1,38,69,1,0,0,response1disk,6,148,8,-8,1,0,0,rectangle,8,-8,1,0,0,6,5,0,0.0011,8,-8,1,0,0,0,147,147,144,1,,,,,,,,,,,,,,,,,,,,,
,,,,,,,,,,,,,,,,,,,,,,,,,,,,,,,,,,,,,,,,,,,5eacad39ef271f3206810eeb,5ff3a3eaf4e2339dadb467c2,2021-01-04_17h26.04.118,Colour_Similarity_Experiment_v1,2020.1.2,Win32,60,5ff3a352adaa099f7659f8cc,,,,,,,,,,,,,,,,,,,,PF,,,,,,,,7,1.77165,,,,,,,,,,,,,,,,,,,,,,,,,8,39,80,1,0,0,response1disk,4,149,1,10,1,0,0,rectangle,1,10,1,0,0,6,5,0,0.00114,1,10,1,0,0,0,148,148,78,1,,,,,,,,,,,,,,,,,,,,,
,,,,,,,,,,,,,,,,,,,,,,,,,,,,,,,,,,,,,,,,,,,5eacad39ef271f3206810eeb,5ff3a3eaf4e2339dadb467c2,2021-01-04_17h26.04.118,Colour_Similarity_Experiment_v1,2020.1.2,Win32,60,5ff3a352adaa099f7659f8cc,,,,,,,,,,,,,,,,,,,,PF,,,,,,,,7,2.17888,,,,,,,,,,,,,,,,,,,,,,,,,7,44,78,1,0,0,response1disk,4,150,9,-5,1,0,0,rectangle,9,-5,1,0,0,6,5,0,0.00265,9,-5,1,0,0,0,149,149,43,1,,,,,,,,,,,,,,,,,,,,,
,,,,,,,,,,,,,,,,,,,,,,,,,,,,,,,,,,,,,,,,,,,5eacad39ef271f3206810eeb,5ff3a3eaf4e2339dadb467c2,2021-01-04_17h26.04.118,Colour_Similarity_Experiment_v1,2020.1.2,Win32,60,5ff3a352adaa099f7659f8cc,,,,,,,,,,,,,,,,,,,,FF,,,,,,,,4,3.405755,,,,,,,,,,,,,,,,,,,,,,,,,4,38,-69,1,0,0,response3disk,3,151,10,5,1,0,0,rectangle,10,5,1,0,0,6,6,0,0.001205,10,5,1,0,0,0,150,150,77,1,,,,,,,,,,,,,,,,,,,,,
,,,,,,,,,,,,,,,,,,,,,,,,,,,,,,,,,,,,,,,,,,,5eacad39ef271f3206810eeb,5ff3a3eaf4e2339dadb467c2,2021-01-04_17h26.04.118,Colour_Similarity_Experiment_v1,2020.1.2,Win32,60,5ff3a352adaa099f7659f8cc,,,,,,,,,,,,,,,,,,,,PF,,,,,,,,1,6.350295,,,,,,,,,,,,,,,,,,,,,,,,,5,-88,36,1,0,0,response7disk,5,152,-28,4,1,0,0,rectangle,-28,4,1,0,0,6,3,0,0.002725,-28,4,1,0,0,0,151,151,94,1,,,,,,,,,,,,,,,,,,,,,
,,,,,,,,,,,,,,,,,,,,,,,,,,,,,,,,,,,,,,,,,,,5eacad39ef271f3206810eeb,5ff3a3eaf4e2339dadb467c2,2021-01-04_17h26.04.118,Colour_Similarity_Experiment_v1,2020.1.2,Win32,60,5ff3a352adaa099f7659f8cc,,,,,,,,,,,,,,,,,,,,PF,,,,,,,,5,5.266615,,,,,,,,,,,,,,,,,,,,,,,,,7,85,-57,1,0,0,response3disk,6,153,-17,-4,1,0,0,rectangle,-17,-4,1,0,0,6,7,0,0.001235,-17,-4,1,0,0,0,152,152,29,1,,,,,,,,,,,,,,,,,,,,,
,,,,,,,,,,,,,,,,,,,,,,,,,,,,,,,,,,,,,,,,,,,5eacad39ef271f3206810eeb,5ff3a3eaf4e2339dadb467c2,2021-01-04_17h26.04.118,Colour_Similarity_Experiment_v1,2020.1.2,Win32,60,5ff3a352adaa099f7659f8cc,,,,,,,,,,,,,,,,,,,,FF,,,,,,,,7,2.11278,,,,,,,,,,,,,,,,,,,,,,,,,8,20,52,1,0,0,response1disk,1,154,-10,1,1,0,0,rectangle,-10,1,1,0,0,6,2,0,0.00148,-10,1,1,0,0,0,153,153,20,1,,,,,,,,,,,,,,,,,,,,,
,,,,,,,,,,,,,,,,,,,,,,,,,,,,,,,,,,,,,,,,,,,5eacad39ef271f3206810eeb,5ff3a3eaf4e2339dadb467c2,2021-01-04_17h26.04.118,Colour_Similarity_Experiment_v1,2020.1.2,Win32,60,5ff3a352adaa099f7659f8cc,,,,,,,,,,,,,,,,,,,,PF,,,,,,,,7,1.45778,,,,,,,,,,,,,,,,,,,,,,,,,9,36,81,1,0,0,response1disk,1,155,6,-6,1,0,0,rectangle,6,-6,1,0,0,6,4,0,0.003645,6,-6,1,0,0,0,154,154,74,1,,,,,,,,,,,,,,,,,,,,,
,,,,,,,,,,,,,,,,,,,,,,,,,,,,,,,,,,,,,,,,,,,5eacad39ef271f3206810eeb,5ff3a3eaf4e2339dadb467c2,2021-01-04_17h26.04.118,Colour_Similarity_Experiment_v1,2020.1.2,Win32,60,5ff3a352adaa099f7659f8cc,,,,,,,,,,,,,,,,,,,,PF,,,,,,,,7,1.448765,,,,,,,,,,,,,,,,,,,,,,,,,3,36,56,1,0,0,response1disk,9,156,0,-2,1,0,0,rectangle,0,-2,1,0,0,6,4,0,0.00122,0,-2,1,0,0,0,155,155,79,1,,,,,,,,,,,,,,,,,,,,,
,,,,,,,,,,,,,,,,,,,,,,,,,,,,,,,,,,,,,,,,,,,5eacad39ef271f3206810eeb,5ff3a3eaf4e2339dadb467c2,2021-01-04_17h26.04.118,Colour_Similarity_Experiment_v1,2020.1.2,Win32,60,5ff3a352adaa099f7659f8cc,,,,,,,,,,,,,,,,,,,,FF,,,,,,,,7,1.49261,,,,,,,,,,,,,,,,,,,,,,,,,3,30,46,1,0,0,response1disk,5,157,-4,0,1,0,0,rectangle,-4,0,1,0,0,6,1,0,0.08417,-4,0,1,0,0,0,156,156,101,1,,,,,,,,,,,,,,,,,,,,,
,,,,,,,,,,,,,,,,,,,,,,,,,,,,,,,,,,,,,,,,,,,5eacad39ef271f3206810eeb,5ff3a3eaf4e2339dadb467c2,2021-01-04_17h26.04.118,Colour_Similarity_Experiment_v1,2020.1.2,Win32,60,5ff3a352adaa099f7659f8cc,,,,,,,,,,,,,,,,,,,,FF,,,,,,,,7,2.29454,,,,,,,,,,,,,,,,,,,,,,,,,6,49,81,1,0,0,response1disk,5,158,18,-3,1,0,0,rectangle,18,-3,1,0,0,6,2,0,0.00197,18,-3,1,0,0,0,157,157,126,1,,,,,,,,,,,,,,,,,,,,,
,,,,,,,,,,,,,,,,,,,,,,,,,,,,,,,,,,,,,,,,,,,5eacad39ef271f3206810eeb,5ff3a3eaf4e2339dadb467c2,2021-01-04_17h26.04.118,Colour_Similarity_Experiment_v1,2020.1.2,Win32,60,5ff3a352adaa099f7659f8cc,,,,,,,,,,,,,,,,,,,,FF,,,,,,,,7,1.73033,,,,,,,,,,,,,,,,,,,,,,,,,7,49,79,1,0,0,response1disk,6,159,4,0,1,0,0,rectangle,4,0,1,0,0,6,2,0,0.001265,4,0,1,0,0,0,158,158,31,1,,,,,,,,,,,,,,,,,,,,,
,,,,,,,,,,,,,,,,,,,,,,,,,,,,,,,,,,,,,,,,,,,5eacad39ef271f3206810eeb,5ff3a3eaf4e2339dadb467c2,2021-01-04_17h26.04.118,Colour_Similarity_Experiment_v1,2020.1.2,Win32,60,5ff3a352adaa099f7659f8cc,,,,,,,,,,,,,,,,,,,,FF,,,,,,,,7,2.521795,,,,,,,,,,,,,,,,,,,,,,,,,2,56,91,1,0,0,response1disk,9,160,5,1,1,0,0,rectangle,5,1,1,0,0,6,1,0,0.00118,5,1,1,0,0,0,159,159,72,1,,,,,,,,,,,,,,,,,,,,,
,,,,,,,,,,,,,,,,,,,,,,,,,,,,,,,,,,,,,,,,,,,5eacad39ef271f3206810eeb,5ff3a3eaf4e2339dadb467c2,2021-01-04_17h26.04.118,Colour_Similarity_Experiment_v1,2020.1.2,Win32,60,5ff3a352adaa099f7659f8cc,,,,,,,,,,,,,,,,,,,,FF,,,,,,,,7,1.715255,,,,,,,,,,,,,,,,,,,,,,,,,7,64,96,1,0,0,response1disk,3,161,14,5,1,0,0,rectangle,14,5,1,0,0,6,0,0,0.001445,14,5,1,0,0,0,160,160,73,1,,,,,,,,,,,,,,,,,,,,,
,,,,,,,,,,,,,,,,,,,,,,,,,,,,,,,,,,,,,,,,,,,5eacad39ef271f3206810eeb,5ff3a3eaf4e2339dadb467c2,2021-01-04_17h26.04.118,Colour_Similarity_Experiment_v1,2020.1.2,Win32,60,5ff3a352adaa099f7659f8cc,,,,,,,,,,,,,,,,,,,,FF,,,,,,,,0,2.184225,,,,,,,,,,,,,,,,,,,,,,,,,7,-43,73,1,0,0,response7disk,7,162,-19,1,1,0,0,rectangle,-19,1,1,0,0,6,1,0,0.00302,-19,1,1,0,0,0,161,161,34,1,,,,,,,,,,,,,,,,,,,,,
,,,,,,,,,,,,,,,,,,,,,,,,,,,,,,,,,,,,,,,,,,,5eacad39ef271f3206810eeb,5ff3a3eaf4e2339dadb467c2,2021-01-04_17h26.04.118,Colour_Similarity_Experiment_v1,2020.1.2,Win32,60,5ff3a352adaa099f7659f8cc,,,,,,,,,,,,,,,,,,,,,,,,,,,,,,,,,,,,,,,,,,,,,,,,,,,,,,,,,,,,,,,,,,,,,,,,,,,,,,,,,,,,,,,,,,0,0,0,0,1,,,,,,,,,,,,,,
,,,,,,,,,,,,,,,,,,,,,,,,,,,,,,,,,,,,,,,,,,,5eacad39ef271f3206810eeb,5ff3a3eaf4e2339dadb467c2,2021-01-04_17h26.04.118,Colour_Similarity_Experiment_v1,2020.1.2,Win32,60,5ff3a352adaa099f7659f8cc,,,,,,,,,,,,,,,,,,,,PF,,,,,,,,7,1.76884,,,,,,,,,,,,,,,,,,,,,,,,,2,31,81,1,0,0,response1disk,7,163,6,-2,1,0,0,rectangle,6,-2,1,0,0,6,6,0,0.00247,6,-2,1,0,0,0,0,0,107,1,,,,,,,,,,,,,,,,,,,,,
,,,,,,,,,,,,,,,,,,,,,,,,,,,,,,,,,,,,,,,,,,,5eacad39ef271f3206810eeb,5ff3a3eaf4e2339dadb467c2,2021-01-04_17h26.04.118,Colour_Similarity_Experiment_v1,2020.1.2,Win32,60,5ff3a352adaa099f7659f8cc,,,,,,,,,,,,,,,,,,,,FF,,,,,,,,4,2.984035,,,,,,,,,,,,,,,,,,,,,,,,,6,42,-48,1,0,0,response3disk,5,164,6,-6,1,0,0,rectangle,6,-6,1,0,0,6,6,0,0.003055,6,-6,1,0,0,0,1,1,126,1,,,,,,,,,,,,,,,,,,,,,
,,,,,,,,,,,,,,,,,,,,,,,,,,,,,,,,,,,,,,,,,,,5eacad39ef271f3206810eeb,5ff3a3eaf4e2339dadb467c2,2021-01-04_17h26.04.118,Colour_Similarity_Experiment_v1,2020.1.2,Win32,60,5ff3a352adaa099f7659f8cc,,,,,,,,,,,,,,,,,,,,PF,,,,,,,,0,1.75322,,,,,,,,,,,,,,,,,,,,,,,,,8,-30,50,1,0,0,response7disk,8,165,-16,-4,1,0,0,rectangle,-16,-4,1,0,0,6,3,0,0.00229,-16,-4,1,0,0,0,2,2,153,1,,,,,,,,,,,,,,,,,,,,,
,,,,,,,,,,,,,,,,,,,,,,,,,,,,,,,,,,,,,,,,,,,5eacad39ef271f3206810eeb,5ff3a3eaf4e2339dadb467c2,2021-01-04_17h26.04.118,Colour_Similarity_Experiment_v1,2020.1.2,Win32,60,5ff3a352adaa099f7659f8cc,,,,,,,,,,,,,,,,,,,,FF,,,,,,,,6,3.102205,,,,,,,,,,,,,,,,,,,,,,,,,5,81,36,1,0,0,response1disk,4,166,19,-6,1,0,0,rectangle,19,-6,1,0,0,6,0,0,0.001155,19,-6,1,0,0,0,3,3,8,1,,,,,,,,,,,,,,,,,,,,,
,,,,,,,,,,,,,,,,,,,,,,,,,,,,,,,,,,,,,,,,,,,5eacad39ef271f3206810eeb,5ff3a3eaf4e2339dadb467c2,2021-01-04_17h26.04.118,Colour_Similarity_Experiment_v1,2020.1.2,Win32,60,5ff3a352adaa099f7659f8cc,,,,,,,,,,,,,,,,,,,,PF,,,,,,,,7,1.66497,,,,,,,,,,,,,,,,,,,,,,,,,2,64,109,1,0,0,response1disk,9,167,-15,1,1,0,0,rectangle,-15,1,1,0,0,6,5,0,0.00132,-15,1,1,0,0,0,4,4,39,1,,,,,,,,,,,,,,,,,,,,,
,,,,,,,,,,,,,,,,,,,,,,,,,,,,,,,,,,,,,,,,,,,5eacad39ef271f3206810eeb,5ff3a3eaf4e2339dadb467c2,2021-01-04_17h26.04.118,Colour_Similarity_Experiment_v1,2020.1.2,Win32,60,5ff3a352adaa099f7659f8cc,,,,,,,,,,,,,,,,,,,,PF,,,,,,,,7,2.804775,,,,,,,,,,,,,,,,,,,,,,,,,8,40,70,1,0,0,response1disk,4,168,12,8,1,0,0,rectangle,12,8,1,0,0,6,6,0,0.001335,12,8,1,0,0,0,5,5,78,1,,,,,,,,,,,,,,,,,,,,,
,,,,,,,,,,,,,,,,,,,,,,,,,,,,,,,,,,,,,,,,,,,5eacad39ef271f3206810eeb,5ff3a3eaf4e2339dadb467c2,2021-01-04_17h26.04.118,Colour_Similarity_Experiment_v1,2020.1.2,Win32,60,5ff3a352adaa099f7659f8cc,,,,,,,,,,,,,,,,,,,,PF,,,,,,,,0,2.61403,,,,,,,,,,,,,,,,,,,,,,,,,7,-30,48,1,0,0,response7disk,7,169,23,-2,1,0,0,rectangle,23,-2,1,0,0,6,2,0,0.00142,23,-2,1,0,0,0,6,6,51,1,,,,,,,,,,,,,,,,,,,,,
,,,,,,,,,,,,,,,,,,,,,,,,,,,,,,,,,,,,,,,,,,,5eacad39ef271f3206810eeb,5ff3a3eaf4e2339dadb467c2,2021-01-04_17h26.04.118,Colour_Similarity_Experiment_v1,2020.1.2,Win32,60,5ff3a352adaa099f7659f8cc,,,,,,,,,,,,,,,,,,,,FF,,,,,,,,7,1.74163,,,,,,,,,,,,,,,,,,,,,,,,,8,47,88,1,0,0,response1disk,2,170,24,12,1,0,0,rectangle,24,12,1,0,0,6,3,0,0.001145,24,12,1,0,0,0,7,7,22,1,,,,,,,,,,,,,,,,,,,,,
,,,,,,,,,,,,,,,,,,,,,,,,,,,,,,,,,,,,,,,,,,,5eacad39ef271f3206810eeb,5ff3a3eaf4e2339dadb467c2,2021-01-04_17h26.04.118,Colour_Similarity_Experiment_v1,2020.1.2,Win32,60,5ff3a352adaa099f7659f8cc,,,,,,,,,,,,,,,,,,,,FF,,,,,,,,7,1.78926,,,,,,,,,,,,,,,,,,,,,,,,,9,40,66,1,0,0,response1disk,4,171,15,4,1,0,0,rectangle,15,4,1,0,0,6,3,0,0.001225,15,4,1,0,0,0,8,8,60,1,,,,,,,,,,,,,,,,,,,,,
,,,,,,,,,,,,,,,,,,,,,,,,,,,,,,,,,,,,,,,,,,,5eacad39ef271f3206810eeb,5ff3a3eaf4e2339dadb467c2,2021-01-04_17h26.04.118,Colour_Similarity_Experiment_v1,2020.1.2,Win32,60,5ff3a352adaa099f7659f8cc,,,,,,,,,,,,,,,,,,,,PF,,,,,,,,7,1.305505,,,,,,,,,,,,,,,,,,,,,,,,,4,38,70,1,0,0,response1disk,7,172,5,11,1,0,0,rectangle,5,11,1,0,0,6,2,0,0.001165,5,11,1,0,0,0,9,9,38,1,,,,,,,,,,,,,,,,,,,,,
,,,,,,,,,,,,,,,,,,,,,,,,,,,,,,,,,,,,,,,,,,,5eacad39ef271f3206810eeb,5ff3a3eaf4e2339dadb467c2,2021-01-04_17h26.04.118,Colour_Similarity_Experiment_v1,2020.1.2,Win32,60,5ff3a352adaa099f7659f8cc,,,,,,,,,,,,,,,,,,,,PF,,,,,,,,7,1.14133,,,,,,,,,,,,,,,,,,,,,,,,,8,29,67,1,0,0,response1disk,6,173,3,4,1,0,0,rectangle,-49,87,1,0,0,0,0,1,2.568705,-4,-1,1,0,0,0,10,10,161,1,response7disk_3,rectangle,,,,,,,,,,,,,,,,,,,
,,,,,,,,,,,,,,,,,,,,,,,,,,,,,,,,,,,,,,,,,,,5eacad39ef271f3206810eeb,5ff3a3eaf4e2339dadb467c2,2021-01-04_17h26.04.118,Colour_Similarity_Experiment_v1,2020.1.2,Win32,60,5ff3a352adaa099f7659f8cc,,,,,,,,,,,,,,,,,,,,PF,,,,,,,,7,1.77363,,,,,,,,,,,,,,,,,,,,,,,,,7,40,66,1,0,0,response1disk,1,174,3,5,1,0,0,rectangle,3,5,1,0,0,0,1,0,0.00279,3,5,1,0,0,0,11,11,53,1,,,,,,,,,,,,,,,,,,,,,
,,,,,,,,,,,,,,,,,,,,,,,,,,,,,,,,,,,,,,,,,,,5eacad39ef271f3206810eeb,5ff3a3eaf4e2339dadb467c2,2021-01-04_17h26.04.118,Colour_Similarity_Experiment_v1,2020.1.2,Win32,60,5ff3a352adaa099f7659f8cc,,,,,,,,,,,,,,,,,,,,PF,,,,,,,,7,2.151515,,,,,,,,,,,,,,,,,,,,,,,,,7,32,52,1,0,0,response1disk,9,175,23,-7,1,0,0,rectangle,23,-7,1,0,0,0,2,0,0.00114,23,-7,1,0,0,0,12,12,10,1,,,,,,,,,,,,,,,,,,,,,
,,,,,,,,,,,,,,,,,,,,,,,,,,,,,,,,,,,,,,,,,,,5eacad39ef271f3206810eeb,5ff3a3eaf4e2339dadb467c2,2021-01-04_17h26.04.118,Colour_Similarity_Experiment_v1,2020.1.2,Win32,60,5ff3a352adaa099f7659f8cc,,,,,,,,,,,,,,,,,,,,PF,,,,,,,,7,2.50765,,,,,,,,,,,,,,,,,,,,,,,,,8,46,82,1,0,0,response1disk,2,176,4,-3,1,0,0,rectangle,4,-3,1,0,0,0,6,0,0.001285,4,-3,1,0,0,0,13,13,83,1,,,,,,,,,,,,,,,,,,,,,
,,,,,,,,,,,,,,,,,,,,,,,,,,,,,,,,,,,,,,,,,,,5eacad39ef271f3206810eeb,5ff3a3eaf4e2339dadb467c2,2021-01-04_17h26.04.118,Colour_Similarity_Experiment_v1,2020.1.2,Win32,60,5ff3a352adaa099f7659f8cc,,,,,,,,,,,,,,,,,,,,PF,,,,,,,,5,3.44546,,,,,,,,,,,,,,,,,,,,,,,,,9,85,-33,1,0,0,response3disk,8,177,-6,-6,1,0,0,rectangle,-6,-6,1,0,0,0,7,0,0.00216,-6,-6,1,0,0,0,14,14,67,1,,,,,,,,,,,,,,,,,,,,,
,,,,,,,,,,,,,,,,,,,,,,,,,,,,,,,,,,,,,,,,,,,5eacad39ef271f3206810eeb,5ff3a3eaf4e2339dadb467c2,2021-01-04_17h26.04.118,Colour_Similarity_Experiment_v1,2020.1.2,Win32,60,5ff3a352adaa099f7659f8cc,,,,,,,,,,,,,,,,,,,,PF,,,,,,,,7,3.77318,,,,,,,,,,,,,,,,,,,,,,,,,8,41,73,1,0,0,response1disk,1,178,-6,4,1,0,0,rectangle,-6,4,1,0,0,0,0,0,0.001425,-6,4,1,0,0,0,15,15,57,1,,,,,,,,,,,,,,,,,,,,,
,,,,,,,,,,,,,,,,,,,,,,,,,,,,,,,,,,,,,,,,,,,5eacad39ef271f3206810eeb,5ff3a3eaf4e2339dadb467c2,2021-01-04_17h26.04.118,Colour_Similarity_Experiment_v1,2020.1.2,Win32,60,5ff3a352adaa099f7659f8cc,,,,,,,,,,,,,,,,,,,,PF,,,,,,,,5,2.87299,,,,,,,,,,,,,,,,,,,,,,,,,4,66,-32,1,0,0,response3disk,5,179,7,-5,1,0,0,rectangle,7,-5,1,0,0,0,5,0,0.02407,7,-5,1,0,0,0,16,16,49,1,,,,,,,,,,,,,,,,,,,,,
,,,,,,,,,,,,,,,,,,,,,,,,,,,,,,,,,,,,,,,,,,,5eacad39ef271f3206810eeb,5ff3a3eaf4e2339dadb467c2,2021-01-04_17h26.04.118,Colour_Similarity_Experiment_v1,2020.1.2,Win32,60,5ff3a352adaa099f7659f8cc,,,,,,,,,,,,,,,,,,,,PF,,,,,,,,7,2.024485,,,,,,,,,,,,,,,,,,,,,,,,,6,40,69,1,0,0,response1disk,5,180,10,4,1,0,0,rectangle,10,4,1,0,0,0,1,0,0.003175,10,4,1,0,0,0,17,17,59,1,,,,,,,,,,,,,,,,,,,,,
,,,,,,,,,,,,,,,,,,,,,,,,,,,,,,,,,,,,,,,,,,,5eacad39ef271f3206810eeb,5ff3a3eaf4e2339dadb467c2,2021-01-04_17h26.04.118,Colour_Similarity_Experiment_v1,2020.1.2,Win32,60,5ff3a352adaa099f7659f8cc,,,,,,,,,,,,,,,,,,,,PF,,,,,,,,7,1.71918,,,,,,,,,,,,,,,,,,,,,,,,,6,48,74,1,0,0,response1disk,1,181,8,-5,1,0,0,rectangle,8,-5,1,0,0,0,5,0,0.001135,8,-5,1,0,0,0,18,18,46,1,,,,,,,,,,,,,,,,,,,,,
,,,,,,,,,,,,,,,,,,,,,,,,,,,,,,,,,,,,,,,,,,,5eacad39ef271f3206810eeb,5ff3a3eaf4e2339dadb467c2,2021-01-04_17h26.04.118,Colour_Similarity_Experiment_v1,2020.1.2,Win32,60,5ff3a352adaa099f7659f8cc,,,,,,,,,,,,,,,,,,,,FF,,,,,,,,7,1.713955,,,,,,,,,,,,,,,,,,,,,,,,,6,37,66,1,0,0,response1disk,3,182,-4,-2,1,0,0,rectangle,-4,-2,1,0,0,0,6,0,0.001585,-4,-2,1,0,0,0,19,19,21,1,,,,,,,,,,,,,,,,,,,,,
,,,,,,,,,,,,,,,,,,,,,,,,,,,,,,,,,,,,,,,,,,,5eacad39ef271f3206810eeb,5ff3a3eaf4e2339dadb467c2,2021-01-04_17h26.04.118,Colour_Similarity_Experiment_v1,2020.1.2,Win32,60,5ff3a352adaa099f7659f8cc,,,,,,,,,,,,,,,,,,,,PF,,,,,,,,7,1.4689,,,,,,,,,,,,,,,,,,,,,,,,,5,27,55,1,0,0,response1disk,2,183,10,-2,1,0,0,rectangle,10,-2,1,0,0,0,6,0,0.001205,10,-2,1,0,0,0,20,20,129,1,,,,,,,,,,,,,,,,,,,,,
,,,,,,,,,,,,,,,,,,,,,,,,,,,,,,,,,,,,,,,,,,,5eacad39ef271f3206810eeb,5ff3a3eaf4e2339dadb467c2,2021-01-04_17h26.04.118,Colour_Similarity_Experiment_v1,2020.1.2,Win32,60,5ff3a352adaa099f7659f8cc,,,,,,,,,,,,,,,,,,,,FF,,,,,,,,7,1.59896,,,,,,,,,,,,,,,,,,,,,,,,,5,40,88,1,0,0,response1disk,7,184,13,3,1,0,0,rectangle,13,3,1,0,0,0,5,0,0.001745,13,3,1,0,0,0,21,21,7,1,,,,,,,,,,,,,,,,,,,,,
,,,,,,,,,,,,,,,,,,,,,,,,,,,,,,,,,,,,,,,,,,,5eacad39ef271f3206810eeb,5ff3a3eaf4e2339dadb467c2,2021-01-04_17h26.04.118,Colour_Similarity_Experiment_v1,2020.1.2,Win32,60,5ff3a352adaa099f7659f8cc,,,,,,,,,,,,,,,,,,,,PF,,,,,,,,2,2.74748,,,,,,,,,,,,,,,,,,,,,,,,,4,-78,-17,1,0,0,response5disk,4,185,-19,8,1,0,0,rectangle,-19,8,1,0,0,0,4,0,0.001155,-19,8,1,0,0,0,22,22,70,1,,,,,,,,,,,,,,,,,,,,,
,,,,,,,,,,,,,,,,,,,,,,,,,,,,,,,,,,,,,,,,,,,5eacad39ef271f3206810eeb,5ff3a3eaf4e2339dadb467c2,2021-01-04_17h26.04.118,Colour_Similarity_Experiment_v1,2020.1.2,Win32,60,5ff3a352adaa099f7659f8cc,,,,,,,,,,,,,,,,,,,,FF,,,,,,,,0,2.095705,,,,,,,,,,,,,,,,,,,,,,,,,9,-57,90,1,0,0,response7disk,9,186,-4,-1,1,0,0,rectangle,-4,-1,1,0,0,0,4,0,0.00242,-4,-1,1,0,0,0,23,23,17,1,,,,,,,,,,,,,,,,,,,,,
,,,,,,,,,,,,,,,,,,,,,,,,,,,,,,,,,,,,,,,,,,,5eacad39ef271f3206810eeb,5ff3a3eaf4e2339dadb467c2,2021-01-04_17h26.04.118,Colour_Similarity_Experiment_v1,2020.1.2,Win32,60,5ff3a352adaa099f7659f8cc,,,,,,,,,,,,,,,,,,,,PF,,,,,,,,7,2.20324,,,,,,,,,,,,,,,,,,,,,,,,,8,34,92,1,0,0,response1disk,9,187,7,5,1,0,0,rectangle,7,5,1,0,0,0,7,0,0.001445,7,5,1,0,0,0,24,24,42,1,,,,,,,,,,,,,,,,,,,,,
,,,,,,,,,,,,,,,,,,,,,,,,,,,,,,,,,,,,,,,,,,,5eacad39ef271f3206810eeb,5ff3a3eaf4e2339dadb467c2,2021-01-04_17h26.04.118,Colour_Similarity_Experiment_v1,2020.1.2,Win32,60,5ff3a352adaa099f7659f8cc,,,,,,,,,,,,,,,,,,,,FF,,,,,,,,7,1.57635,,,,,,,,,,,,,,,,,,,,,,,,,1,27,58,1,0,0,response1disk,4,188,4,3,1,0,0,rectangle,4,3,1,0,0,0,3,0,0.001145,4,3,1,0,0,0,25,25,135,1,,,,,,,,,,,,,,,,,,,,,
,,,,,,,,,,,,,,,,,,,,,,,,,,,,,,,,,,,,,,,,,,,5eacad39ef271f3206810eeb,5ff3a3eaf4e2339dadb467c2,2021-01-04_17h26.04.118,Colour_Similarity_Experiment_v1,2020.1.2,Win32,60,5ff3a352adaa099f7659f8cc,,,,,,,,,,,,,,,,,,,,FF,,,,,,,,0,1.69042,,,,,,,,,,,,,,,,,,,,,,,,,1,-35,69,1,0,0,response7disk,1,189,-1,3,1,0,0,rectangle,-1,3,1,0,0,0,0,0,0.00126,-1,3,1,0,0,0,26,26,151,1,,,,,,,,,,,,,,,,,,,,,
,,,,,,,,,,,,,,,,,,,,,,,,,,,,,,,,,,,,,,,,,,,5eacad39ef271f3206810eeb,5ff3a3eaf4e2339dadb467c2,2021-01-04_17h26.04.118,Colour_Similarity_Experiment_v1,2020.1.2,Win32,60,5ff3a352adaa099f7659f8cc,,,,,,,,,,,,,,,,,,,,FF,,,,,,,,4,3.552835,,,,,,,,,,,,,,,,,,,,,,,,,4,51,-61,1,0,0,response3disk,5,190,5,-4,1,0,0,rectangle,5,-4,1,0,0,0,6,0,0.003015,5,-4,1,0,0,0,27,27,116,1,,,,,,,,,,,,,,,,,,,,,
,,,,,,,,,,,,,,,,,,,,,,,,,,,,,,,,,,,,,,,,,,,5eacad39ef271f3206810eeb,5ff3a3eaf4e2339dadb467c2,2021-01-04_17h26.04.118,Colour_Similarity_Experiment_v1,2020.1.2,Win32,60,5ff3a352adaa099f7659f8cc,,,,,,,,,,,,,,,,,,,,FF,,,,,,,,7,1.98169,,,,,,,,,,,,,,,,,,,,,,,,,3,32,62,1,0,0,response1disk,2,191,-9,6,1,0,0,rectangle,-9,6,1,0,0,0,2,0,0.00109,-9,6,1,0,0,0,28,28,93,1,,,,,,,,,,,,,,,,,,,,,
,,,,,,,,,,,,,,,,,,,,,,,,,,,,,,,,,,,,,,,,,,,5eacad39ef271f3206810eeb,5ff3a3eaf4e2339dadb467c2,2021-01-04_17h26.04.118,Colour_Similarity_Experiment_v1,2020.1.2,Win32,60,5ff3a352adaa099f7659f8cc,,,,,,,,,,,,,,,,,,,,PF,,,,,,,,4,4.14617,,,,,,,,,,,,,,,,,,,,,,,,,7,45,-71,1,0,0,response3disk,8,192,-12,5,1,0,0,rectangle,-12,5,1,0,0,0,6,0,0.00326,-12,5,1,0,0,0,29,29,140,1,,,,,,,,,,,,,,,,,,,,,
,,,,,,,,,,,,,,,,,,,,,,,,,,,,,,,,,,,,,,,,,,,5eacad39ef271f3206810eeb,5ff3a3eaf4e2339dadb467c2,2021-01-04_17h26.04.118,Colour_Similarity_Experiment_v1,2020.1.2,Win32,60,5ff3a352adaa099f7659f8cc,,,,,,,,,,,,,,,,,,,,FF,,,,,,,,7,1.993955,,,,,,,,,,,,,,,,,,,,,,,,,8,21,69,1,0,0,response1disk,4,193,-11,-5,1,0,0,rectangle,-11,-5,1,0,0,0,5,0,0.02204,-11,-5,1,0,0,0,30,30,88,1,,,,,,,,,,,,,,,,,,,,,
,,,,,,,,,,,,,,,,,,,,,,,,,,,,,,,,,,,,,,,,,,,5eacad39ef271f3206810eeb,5ff3a3eaf4e2339dadb467c2,2021-01-04_17h26.04.118,Colour_Similarity_Experiment_v1,2020.1.2,Win32,60,5ff3a352adaa099f7659f8cc,,,,,,,,,,,,,,,,,,,,PF,,,,,,,,7,1.406645,,,,,,,,,,,,,,,,,,,,,,,,,5,46,81,1,0,0,response1disk,8,194,-6,5,1,0,0,rectangle,-6,5,1,0,0,0,5,0,0.001635,-6,5,1,0,0,0,31,31,149,1,,,,,,,,,,,,,,,,,,,,,
,,,,,,,,,,,,,,,,,,,,,,,,,,,,,,,,,,,,,,,,,,,5eacad39ef271f3206810eeb,5ff3a3eaf4e2339dadb467c2,2021-01-04_17h26.04.118,Colour_Similarity_Experiment_v1,2020.1.2,Win32,60,5ff3a352adaa099f7659f8cc,,,,,,,,,,,,,,,,,,,,PF,,,,,,,,7,1.72932,,,,,,,,,,,,,,,,,,,,,,,,,6,28,77,1,0,0,response1disk,9,195,14,4,1,0,0,rectangle,14,4,1,0,0,0,4,0,0.00276,14,4,1,0,0,0,32,32,45,1,,,,,,,,,,,,,,,,,,,,,
,,,,,,,,,,,,,,,,,,,,,,,,,,,,,,,,,,,,,,,,,,,5eacad39ef271f3206810eeb,5ff3a3eaf4e2339dadb467c2,2021-01-04_17h26.04.118,Colour_Similarity_Experiment_v1,2020.1.2,Win32,60,5ff3a352adaa099f7659f8cc,,,,,,,,,,,,,,,,,,,,PF,,,,,,,,7,1.19165,,,,,,,,,,,,,,,,,,,,,,,,,6,40,56,1,0,0,response1disk,8,196,-1,-2,1,0,0,rectangle,-1,-2,1,0,0,0,6,0,0.002195,-1,-2,1,0,0,0,33,33,64,1,,,,,,,,,,,,,,,,,,,,,
,,,,,,,,,,,,,,,,,,,,,,,,,,,,,,,,,,,,,,,,,,,5eacad39ef271f3206810eeb,5ff3a3eaf4e2339dadb467c2,2021-01-04_17h26.04.118,Colour_Similarity_Experiment_v1,2020.1.2,Win32,60,5ff3a352adaa099f7659f8cc,,,,,,,,,,,,,,,,,,,,FF,,,,,,,,7,2.46097,,,,,,,,,,,,,,,,,,,,,,,,,9,32,55,1,0,0,response1disk,3,197,1,9,1,0,0,rectangle,1,9,1,0,0,0,0,0,0.002115,1,9,1,0,0,0,34,34,141,1,,,,,,,,,,,,,,,,,,,,,
,,,,,,,,,,,,,,,,,,,,,,,,,,,,,,,,,,,,,,,,,,,5eacad39ef271f3206810eeb,5ff3a3eaf4e2339dadb467c2,2021-01-04_17h26.04.118,Colour_Similarity_Experiment_v1,2020.1.2,Win32,60,5ff3a352adaa099f7659f8cc,,,,,,,,,,,,,,,,,,,,PF,,,,,,,,5,2.14897,,,,,,,,,,,,,,,,,,,,,,,,,4,82,-57,1,0,0,response3disk,3,198,-19,-4,1,0,0,rectangle,-19,-4,1,0,0,0,0,0,0.00107,-19,-4,1,0,0,0,35,35,89,1,,,,,,,,,,,,,,,,,,,,,
,,,,,,,,,,,,,,,,,,,,,,,,,,,,,,,,,,,,,,,,,,,5eacad39ef271f3206810eeb,5ff3a3eaf4e2339dadb467c2,2021-01-04_17h26.04.118,Colour_Similarity_Experiment_v1,2020.1.2,Win32,60,5ff3a352adaa099f7659f8cc,,,,,,,,,,,,,,,,,,,,FF,,,,,,,,0,1.571785,,,,,,,,,,,,,,,,,,,,,,,,,2,-49,67,1,0,0,response7disk,2,199,-4,-4,1,0,0,rectangle,-4,-4,1,0,0,0,1,0,0.002575,-4,-4,1,0,0,0,36,36,142,1,,,,,,,,,,,,,,,,,,,,,
,,,,,,,,,,,,,,,,,,,,,,,,,,,,,,,,,,,,,,,,,,,5eacad39ef271f3206810eeb,5ff3a3eaf4e2339dadb467c2,2021-01-04_17h26.04.118,Colour_Similarity_Experiment_v1,2020.1.2,Win32,60,5ff3a352adaa099f7659f8cc,,,,,,,,,,,,,,,,,,,,FF,,,,,,,,7,1.65589,,,,,,,,,,,,,,,,,,,,,,,,,2,46,86,1,0,0,response1disk,9,200,6,2,1,0,0,rectangle,6,2,1,0,0,0,2,0,0.0016,6,2,1,0,0,0,37,37,72,1,,,,,,,,,,,,,,,,,,,,,
,,,,,,,,,,,,,,,,,,,,,,,,,,,,,,,,,,,,,,,,,,,5eacad39ef271f3206810eeb,5ff3a3eaf4e2339dadb467c2,2021-01-04_17h26.04.118,Colour_Similarity_Experiment_v1,2020.1.2,Win32,60,5ff3a352adaa099f7659f8cc,,,,,,,,,,,,,,,,,,,,FF,,,,,,,,7,1.149005,,,,,,,,,,,,,,,,,,,,,,,,,7,24,67,1,0,0,response1disk,3,201,16,12,1,0,0,rectangle,16,12,1,0,0,0,3,0,0.00127,16,12,1,0,0,0,38,38,73,1,,,,,,,,,,,,,,,,,,,,,
,,,,,,,,,,,,,,,,,,,,,,,,,,,,,,,,,,,,,,,,,,,5eacad39ef271f3206810eeb,5ff3a3eaf4e2339dadb467c2,2021-01-04_17h26.04.118,Colour_Similarity_Experiment_v1,2020.1.2,Win32,60,5ff3a352adaa099f7659f8cc,,,,,,,,,,,,,,,,,,,,PF,,,,,,,,7,1.79993,,,,,,,,,,,,,,,,,,,,,,,,,3,33,66,1,0,0,response1disk,7,202,10,1,1,0,0,rectangle,10,1,1,0,0,0,1,0,0.00115,10,1,1,0,0,0,39,39,41,1,,,,,,,,,,,,,,,,,,,,,
,,,,,,,,,,,,,,,,,,,,,,,,,,,,,,,,,,,,,,,,,,,5eacad39ef271f3206810eeb,5ff3a3eaf4e2339dadb467c2,2021-01-04_17h26.04.118,Colour_Similarity_Experiment_v1,2020.1.2,Win32,60,5ff3a352adaa099f7659f8cc,,,,,,,,,,,,,,,,,,,,PF,,,,,,,,7,1.65303,,,,,,,,,,,,,,,,,,,,,,,,,9,29,50,1,0,0,response1disk,2,203,18,2,1,0,0,rectangle,18,2,1,0,0,0,7,0,0.002385,18,2,1,0,0,0,40,40,157,1,,,,,,,,,,,,,,,,,,,,,
,,,,,,,,,,,,,,,,,,,,,,,,,,,,,,,,,,,,,,,,,,,5eacad39ef271f3206810eeb,5ff3a3eaf4e2339dadb467c2,2021-01-04_17h26.04.118,Colour_Similarity_Experiment_v1,2020.1.2,Win32,60,5ff3a352adaa099f7659f8cc,,,,,,,,,,,,,,,,,,,,FF,,,,,,,,7,1.68632,,,,,,,,,,,,,,,,,,,,,,,,,8,40,65,1,0,0,response1disk,1,204,9,0,1,0,0,rectangle,9,0,1,0,0,0,0,0,0.00126,9,0,1,0,0,0,41,41,20,1,,,,,,,,,,,,,,,,,,,,,
,,,,,,,,,,,,,,,,,,,,,,,,,,,,,,,,,,,,,,,,,,,5eacad39ef271f3206810eeb,5ff3a3eaf4e2339dadb467c2,2021-01-04_17h26.04.118,Colour_Similarity_Experiment_v1,2020.1.2,Win32,60,5ff3a352adaa099f7659f8cc,,,,,,,,,,,,,,,,,,,,FF,,,,,,,,7,1.693865,,,,,,,,,,,,,,,,,,,,,,,,,5,47,87,1,0,0,response1disk,8,205,15,-3,1,0,0,rectangle,15,-3,1,0,0,0,1,0,0.001215,15,-3,1,0,0,0,42,42,16,1,,,,,,,,,,,,,,,,,,,,,
,,,,,,,,,,,,,,,,,,,,,,,,,,,,,,,,,,,,,,,,,,,5eacad39ef271f3206810eeb,5ff3a3eaf4e2339dadb467c2,2021-01-04_17h26.04.118,Colour_Similarity_Experiment_v1,2020.1.2,Win32,60,5ff3a352adaa099f7659f8cc,,,,,,,,,,,,,,,,,,,,FF,,,,,,,,7,1.751405,,,,,,,,,,,,,,,,,,,,,,,,,2,38,54,1,0,0,response1disk,5,206,18,6,1,0,0,rectangle,18,6,1,0,0,0,3,0,0.01071,18,6,1,0,0,0,43,43,80,1,,,,,,,,,,,,,,,,,,,,,
,,,,,,,,,,,,,,,,,,,,,,,,,,,,,,,,,,,,,,,,,,,5eacad39ef271f3206810eeb,5ff3a3eaf4e2339dadb467c2,2021-01-04_17h26.04.118,Colour_Similarity_Experiment_v1,2020.1.2,Win32,60,5ff3a352adaa099f7659f8cc,,,,,,,,,,,,,,,,,,,,FF,,,,,,,,7,1.54464,,,,,,,,,,,,,,,,,,,,,,,,,8,44,88,1,0,0,response1disk,6,207,3,-13,1,0,0,rectangle,3,-13,1,0,0,0,5,0,0.002395,3,-13,1,0,0,0,44,44,37,1,,,,,,,,,,,,,,,,,,,,,
,,,,,,,,,,,,,,,,,,,,,,,,,,,,,,,,,,,,,,,,,,,5eacad39ef271f3206810eeb,5ff3a3eaf4e2339dadb467c2,2021-01-04_17h26.04.118,Colour_Similarity_Experiment_v1,2020.1.2,Win32,60,5ff3a352adaa099f7659f8cc,,,,,,,,,,,,,,,,,,,,FF,,,,,,,,7,1.06226,,,,,,,,,,,,,,,,,,,,,,,,,7,55,78,1,0,0,response1disk,5,208,3,-1,1,0,0,rectangle,3,-1,1,0,0,0,5,0,0.00138,3,-1,1,0,0,0,45,45,156,1,,,,,,,,,,,,,,,,,,,,,
,,,,,,,,,,,,,,,,,,,,,,,,,,,,,,,,,,,,,,,,,,,5eacad39ef271f3206810eeb,5ff3a3eaf4e2339dadb467c2,2021-01-04_17h26.04.118,Colour_Similarity_Experiment_v1,2020.1.2,Win32,60,5ff3a352adaa099f7659f8cc,,,,,,,,,,,,,,,,,,,,FF,,,,,,,,7,1.22155,,,,,,,,,,,,,,,,,,,,,,,,,5,57,75,1,0,0,response1disk,9,209,-6,10,1,0,0,rectangle,-6,10,1,0,0,0,2,0,0.001505,-6,10,1,0,0,0,46,46,61,1,,,,,,,,,,,,,,,,,,,,,
,,,,,,,,,,,,,,,,,,,,,,,,,,,,,,,,,,,,,,,,,,,5eacad39ef271f3206810eeb,5ff3a3eaf4e2339dadb467c2,2021-01-04_17h26.04.118,Colour_Similarity_Experiment_v1,2020.1.2,Win32,60,5ff3a352adaa099f7659f8cc,,,,,,,,,,,,,,,,,,,,FF,,,,,,,,0,2.08965,,,,,,,,,,,,,,,,,,,,,,,,,4,-49,75,1,0,0,response7disk,4,210,4,2,1,0,0,rectangle,4,2,1,0,0,0,4,0,0.00107,4,2,1,0,0,0,47,47,84,1,,,,,,,,,,,,,,,,,,,,,
,,,,,,,,,,,,,,,,,,,,,,,,,,,,,,,,,,,,,,,,,,,5eacad39ef271f3206810eeb,5ff3a3eaf4e2339dadb467c2,2021-01-04_17h26.04.118,Colour_Similarity_Experiment_v1,2020.1.2,Win32,60,5ff3a352adaa099f7659f8cc,,,,,,,,,,,,,,,,,,,,FF,,,,,,,,7,1.616245,,,,,,,,,,,,,,,,,,,,,,,,,4,54,86,1,0,0,response1disk,6,211,2,-3,1,0,0,rectangle,2,-3,1,0,0,0,3,0,0.002375,2,-3,1,0,0,0,48,48,122,1,,,,,,,,,,,,,,,,,,,,,
,,,,,,,,,,,,,,,,,,,,,,,,,,,,,,,,,,,,,,,,,,,5eacad39ef271f3206810eeb,5ff3a3eaf4e2339dadb467c2,2021-01-04_17h26.04.118,Colour_Similarity_Experiment_v1,2020.1.2,Win32,60,5ff3a352adaa099f7659f8cc,,,,,,,,,,,,,,,,,,,,FF,,,,,,,,7,2.390425,,,,,,,,,,,,,,,,,,,,,,,,,8,40,75,1,0,0,response1disk,9,212,7,-5,1,0,0,rectangle,7,-5,1,0,0,0,0,0,0.003405,7,-5,1,0,0,0,49,49,105,1,,,,,,,,,,,,,,,,,,,,,
,,,,,,,,,,,,,,,,,,,,,,,,,,,,,,,,,,,,,,,,,,,5eacad39ef271f3206810eeb,5ff3a3eaf4e2339dadb467c2,2021-01-04_17h26.04.118,Colour_Similarity_Experiment_v1,2020.1.2,Win32,60,5ff3a352adaa099f7659f8cc,,,,,,,,,,,,,,,,,,,,FF,,,,,,,,7,1.60796,,,,,,,,,,,,,,,,,,,,,,,,,9,47,95,1,0,0,response1disk,2,213,11,4,1,0,0,rectangle,-97,39,1,0,0,1,1,1,2.54838,8,-4,1,0,0,0,50,50,11,1,response7disk_3,rectangle,,,,,,,,,,,,,,,,,,,
,,,,,,,,,,,,,,,,,,,,,,,,,,,,,,,,,,,,,,,,,,,5eacad39ef271f3206810eeb,5ff3a3eaf4e2339dadb467c2,2021-01-04_17h26.04.118,Colour_Similarity_Experiment_v1,2020.1.2,Win32,60,5ff3a352adaa099f7659f8cc,,,,,,,,,,,,,,,,,,,,FF,,,,,,,,7,2.72963,,,,,,,,,,,,,,,,,,,,,,,,,7,54,68,1,0,0,response1disk,6,214,4,8,1,0,0,rectangle,4,8,1,0,0,1,4,0,0.001195,4,8,1,0,0,0,51,51,31,1,,,,,,,,,,,,,,,,,,,,,
,,,,,,,,,,,,,,,,,,,,,,,,,,,,,,,,,,,,,,,,,,,5eacad39ef271f3206810eeb,5ff3a3eaf4e2339dadb467c2,2021-01-04_17h26.04.118,Colour_Similarity_Experiment_v1,2020.1.2,Win32,60,5ff3a352adaa099f7659f8cc,,,,,,,,,,,,,,,,,,,,FF,,,,,,,,1,2.31915,,,,,,,,,,,,,,,,,,,,,,,,,8,-77,41,1,0,0,response7disk,8,215,9,-6,1,0,0,rectangle,9,-6,1,0,0,1,1,0,0.001445,9,-6,1,0,0,0,52,52,48,1,,,,,,,,,,,,,,,,,,,,,
,,,,,,,,,,,,,,,,,,,,,,,,,,,,,,,,,,,,,,,,,,,5eacad39ef271f3206810eeb,5ff3a3eaf4e2339dadb467c2,2021-01-04_17h26.04.118,Colour_Similarity_Experiment_v1,2020.1.2,Win32,60,5ff3a352adaa099f7659f8cc,,,,,,,,,,,,,,,,,,,,PF,,,,,,,,7,1.664725,,,,,,,,,,,,,,,,,,,,,,,,,9,23,85,1,0,0,response1disk,1,216,4,1,1,0,0,rectangle,4,1,1,0,0,1,3,0,0.00279,4,1,1,0,0,0,53,53,74,1,,,,,,,,,,,,,,,,,,,,,
,,,,,,,,,,,,,,,,,,,,,,,,,,,,,,,,,,,,,,,,,,,5eacad39ef271f3206810eeb,5ff3a3eaf4e2339dadb467c2,2021-01-04_17h26.04.118,Colour_Similarity_Experiment_v1,2020.1.2,Win32,60,5ff3a352adaa099f7659f8cc,,,,,,,,,,,,,,,,,,,,PF,,,,,,,,7,1.5017,,,,,,,,,,,,,,,,,,,,,,,,,5,47,77,1,0,0,response1disk,7,217,17,13,1,0,0,rectangle,17,13,1,0,0,1,5,0,0.00282,17,13,1,0,0,0,54,54,146,1,,,,,,,,,,,,,,,,,,,,,
,,,,,,,,,,,,,,,,,,,,,,,,,,,,,,,,,,,,,,,,,,,5eacad39ef271f3206810eeb,5ff3a3eaf4e2339dadb467c2,2021-01-04_17h26.04.118,Colour_Similarity_Experiment_v1,2020.1.2,Win32,60,5ff3a352adaa099f7659f8cc,,,,,,,,,,,,,,,,,,,,PF,,,,,,,,7,1.335975,,,,,,,,,,,,,,,,,,,,,,,,,1,44,80,1,0,0,response1disk,9,218,10,1,1,0,0,rectangle,10,1,1,0,0,1,7,0,0.00131,10,1,1,0,0,0,55,55,15,1,,,,,,,,,,,,,,,,,,,,,
,,,,,,,,,,,,,,,,,,,,,,,,,,,,,,,,,,,,,,,,,,,5eacad39ef271f3206810eeb,5ff3a3eaf4e2339dadb467c2,2021-01-04_17h26.04.118,Colour_Similarity_Experiment_v1,2020.1.2,Win32,60,5ff3a352adaa099f7659f8cc,,,,,,,,,,,,,,,,,,,,FF,,,,,,,,7,1.524585,,,,,,,,,,,,,,,,,,,,,,,,,2,36,67,1,0,0,response1disk,1,219,6,-5,1,0,0,rectangle,6,-5,1,0,0,1,2,0,0.001755,6,-5,1,0,0,0,56,56,85,1,,,,,,,,,,,,,,,,,,,,,
,,,,,,,,,,,,,,,,,,,,,,,,,,,,,,,,,,,,,,,,,,,5eacad39ef271f3206810eeb,5ff3a3eaf4e2339dadb467c2,2021-01-04_17h26.04.118,Colour_Similarity_Experiment_v1,2020.1.2,Win32,60,5ff3a352adaa099f7659f8cc,,,,,,,,,,,,,,,,,,,,FF,,,,,,,,7,1.233205,,,,,,,,,,,,,,,,,,,,,,,,,6,32,95,1,0,0,response1disk,4,220,3,4,1,0,0,rectangle,3,4,1,0,0,1,0,0,0.00236,3,4,1,0,0,0,57,57,56,1,,,,,,,,,,,,,,,,,,,,,
,,,,,,,,,,,,,,,,,,,,,,,,,,,,,,,,,,,,,,,,,,,5eacad39ef271f3206810eeb,5ff3a3eaf4e2339dadb467c2,2021-01-04_17h26.04.118,Colour_Similarity_Experiment_v1,2020.1.2,Win32,60,5ff3a352adaa099f7659f8cc,,,,,,,,,,,,,,,,,,,,FF,,,,,,,,7,1.078315,,,,,,,,,,,,,,,,,,,,,,,,,1,55,73,1,0,0,response1disk,7,221,16,2,1,0,0,rectangle,16,2,1,0,0,1,5,0,0.00141,16,2,1,0,0,0,58,58,137,1,,,,,,,,,,,,,,,,,,,,,
,,,,,,,,,,,,,,,,,,,,,,,,,,,,,,,,,,,,,,,,,,,5eacad39ef271f3206810eeb,5ff3a3eaf4e2339dadb467c2,2021-01-04_17h26.04.118,Colour_Similarity_Experiment_v1,2020.1.2,Win32,60,5ff3a352adaa099f7659f8cc,,,,,,,,,,,,,,,,,,,,FF,,,,,,,,7,1.167945,,,,,,,,,,,,,,,,,,,,,,,,,7,49,58,1,0,0,response1disk,4,222,0,3,1,0,0,rectangle,0,3,1,0,0,1,0,0,0.002305,0,3,1,0,0,0,59,59,158,1,,,,,,,,,,,,,,,,,,,,,
,,,,,,,,,,,,,,,,,,,,,,,,,,,,,,,,,,,,,,,,,,,5eacad39ef271f3206810eeb,5ff3a3eaf4e2339dadb467c2,2021-01-04_17h26.04.118,Colour_Similarity_Experiment_v1,2020.1.2,Win32,60,5ff3a352adaa099f7659f8cc,,,,,,,,,,,,,,,,,,,,PF,,,,,,,,7,1.266605,,,,,,,,,,,,,,,,,,,,,,,,,8,52,88,1,0,0,response1disk,7,223,18,5,1,0,0,rectangle,18,5,1,0,0,1,6,0,0.012455,18,5,1,0,0,0,60,60,23,1,,,,,,,,,,,,,,,,,,,,,
,,,,,,,,,,,,,,,,,,,,,,,,,,,,,,,,,,,,,,,,,,,5eacad39ef271f3206810eeb,5ff3a3eaf4e2339dadb467c2,2021-01-04_17h26.04.118,Colour_Similarity_Experiment_v1,2020.1.2,Win32,60,5ff3a352adaa099f7659f8cc,,,,,,,,,,,,,,,,,,,,PF,,,,,,,,7,1.140625,,,,,,,,,,,,,,,,,,,,,,,,,9,48,107,1,0,0,response1disk,4,224,-4,-6,1,0,0,rectangle,-4,-6,1,0,0,1,1,0,0.0011,-4,-6,1,0,0,0,61,61,114,1,,,,,,,,,,,,,,,,,,,,,
,,,,,,,,,,,,,,,,,,,,,,,,,,,,,,,,,,,,,,,,,,,5eacad39ef271f3206810eeb,5ff3a3eaf4e2339dadb467c2,2021-01-04_17h26.04.118,Colour_Similarity_Experiment_v1,2020.1.2,Win32,60,5ff3a352adaa099f7659f8cc,,,,,,,,,,,,,,,,,,,,FF,,,,,,,,7,1.717965,,,,,,,,,,,,,,,,,,,,,,,,,1,50,84,1,0,0,response1disk,8,225,18,3,1,0,0,rectangle,18,3,1,0,0,1,3,0,0.0012,18,3,1,0,0,0,62,62,27,1,,,,,,,,,,,,,,,,,,,,,
,,,,,,,,,,,,,,,,,,,,,,,,,,,,,,,,,,,,,,,,,,,5eacad39ef271f3206810eeb,5ff3a3eaf4e2339dadb467c2,2021-01-04_17h26.04.118,Colour_Similarity_Experiment_v1,2020.1.2,Win32,60,5ff3a352adaa099f7659f8cc,,,,,,,,,,,,,,,,,,,,FF,,,,,,,,7,1.69154,,,,,,,,,,,,,,,,,,,,,,,,,1,51,70,1,0,0,response1disk,3,226,18,3,1,0,0,rectangle,18,3,1,0,0,1,5,0,0.002355,18,3,1,0,0,0,63,63,99,1,,,,,,,,,,,,,,,,,,,,,
,,,,,,,,,,,,,,,,,,,,,,,,,,,,,,,,,,,,,,,,,,,5eacad39ef271f3206810eeb,5ff3a3eaf4e2339dadb467c2,2021-01-04_17h26.04.118,Colour_Similarity_Experiment_v1,2020.1.2,Win32,60,5ff3a352adaa099f7659f8cc,,,,,,,,,,,,,,,,,,,,PF,,,,,,,,7,1.030605,,,,,,,,,,,,,,,,,,,,,,,,,2,38,58,1,0,0,response1disk,4,227,5,4,1,0,0,rectangle,5,4,1,0,0,1,6,0,0.002565,5,4,1,0,0,0,64,64,127,1,,,,,,,,,,,,,,,,,,,,,
,,,,,,,,,,,,,,,,,,,,,,,,,,,,,,,,,,,,,,,,,,,5eacad39ef271f3206810eeb,5ff3a3eaf4e2339dadb467c2,2021-01-04_17h26.04.118,Colour_Similarity_Experiment_v1,2020.1.2,Win32,60,5ff3a352adaa099f7659f8cc,,,,,,,,,,,,,,,,,,,,FF,,,,,,,,7,1.521745,,,,,,,,,,,,,,,,,,,,,,,,,7,61,73,1,0,0,response1disk,2,228,17,7,1,0,0,rectangle,17,7,1,0,0,1,3,0,0.003,17,7,1,0,0,0,65,65,138,1,,,,,,,,,,,,,,,,,,,,,
,,,,,,,,,,,,,,,,,,,,,,,,,,,,,,,,,,,,,,,,,,,5eacad39ef271f3206810eeb,5ff3a3eaf4e2339dadb467c2,2021-01-04_17h26.04.118,Colour_Similarity_Experiment_v1,2020.1.2,Win32,60,5ff3a352adaa099f7659f8cc,,,,,,,,,,,,,,,,,,,,FF,,,,,,,,7,2.212595,,,,,,,,,,,,,,,,,,,,,,,,,9,44,91,1,0,0,response1disk,7,229,13,3,1,0,0,rectangle,13,3,1,0,0,1,4,0,0.00187,13,3,1,0,0,0,66,66,100,1,,,,,,,,,,,,,,,,,,,,,
,,,,,,,,,,,,,,,,,,,,,,,,,,,,,,,,,,,,,,,,,,,5eacad39ef271f3206810eeb,5ff3a3eaf4e2339dadb467c2,2021-01-04_17h26.04.118,Colour_Similarity_Experiment_v1,2020.1.2,Win32,60,5ff3a352adaa099f7659f8cc,,,,,,,,,,,,,,,,,,,,PF,,,,,,,,7,1.011975,,,,,,,,,,,,,,,,,,,,,,,,,5,47,82,1,0,0,response1disk,3,230,14,-5,1,0,0,rectangle,14,-5,1,0,0,1,2,0,0.00106,14,-5,1,0,0,0,67,67,109,1,,,,,,,,,,,,,,,,,,,,,
,,,,,,,,,,,,,,,,,,,,,,,,,,,,,,,,,,,,,,,,,,,5eacad39ef271f3206810eeb,5ff3a3eaf4e2339dadb467c2,2021-01-04_17h26.04.118,Colour_Similarity_Experiment_v1,2020.1.2,Win32,60,5ff3a352adaa099f7659f8cc,,,,,,,,,,,,,,,,,,,,FF,,,,,,,,0,1.656,,,,,,,,,,,,,,,,,,,,,,,,,5,-45,84,1,0,0,response7disk,5,231,-9,-4,1,0,0,rectangle,-9,-4,1,0,0,1,6,0,0.00267,-9,-4,1,0,0,0,68,68,19,1,,,,,,,,,,,,,,,,,,,,,
,,,,,,,,,,,,,,,,,,,,,,,,,,,,,,,,,,,,,,,,,,,5eacad39ef271f3206810eeb,5ff3a3eaf4e2339dadb467c2,2021-01-04_17h26.04.118,Colour_Similarity_Experiment_v1,2020.1.2,Win32,60,5ff3a352adaa099f7659f8cc,,,,,,,,,,,,,,,,,,,,FF,,,,,,,,5,3.1264,,,,,,,,,,,,,,,,,,,,,,,,,5,79,-56,1,0,0,response3disk,6,232,2,2,1,0,0,rectangle,2,2,1,0,0,1,6,0,0.001365,2,2,1,0,0,0,69,69,12,1,,,,,,,,,,,,,,,,,,,,,
,,,,,,,,,,,,,,,,,,,,,,,,,,,,,,,,,,,,,,,,,,,5eacad39ef271f3206810eeb,5ff3a3eaf4e2339dadb467c2,2021-01-04_17h26.04.118,Colour_Similarity_Experiment_v1,2020.1.2,Win32,60,5ff3a352adaa099f7659f8cc,,,,,,,,,,,,,,,,,,,,FF,,,,,,,,7,1.45154,,,,,,,,,,,,,,,,,,,,,,,,,2,47,74,1,0,0,response1disk,8,233,5,-10,1,0,0,rectangle,5,-10,1,0,0,1,2,0,0.00116,5,-10,1,0,0,0,70,70,62,1,,,,,,,,,,,,,,,,,,,,,
,,,,,,,,,,,,,,,,,,,,,,,,,,,,,,,,,,,,,,,,,,,5eacad39ef271f3206810eeb,5ff3a3eaf4e2339dadb467c2,2021-01-04_17h26.04.118,Colour_Similarity_Experiment_v1,2020.1.2,Win32,60,5ff3a352adaa099f7659f8cc,,,,,,,,,,,,,,,,,,,,PF,,,,,,,,7,1.18011,,,,,,,,,,,,,,,,,,,,,,,,,8,43,77,1,0,0,response1disk,3,234,3,-2,1,0,0,rectangle,3,-2,1,0,0,1,3,0,0.004535,3,-2,1,0,0,0,71,71,71,1,,,,,,,,,,,,,,,,,,,,,
,,,,,,,,,,,,,,,,,,,,,,,,,,,,,,,,,,,,,,,,,,,5eacad39ef271f3206810eeb,5ff3a3eaf4e2339dadb467c2,2021-01-04_17h26.04.118,Colour_Similarity_Experiment_v1,2020.1.2,Win32,60,5ff3a352adaa099f7659f8cc,,,,,,,,,,,,,,,,,,,,PF,,,,,,,,7,1.67359,,,,,,,,,,,,,,,,,,,,,,,,,6,40,71,1,0,0,response1disk,3,235,-16,-2,1,0,0,rectangle,-16,-2,1,0,0,1,6,0,0.00531,-16,-2,1,0,0,0,72,72,26,1,,,,,,,,,,,,,,,,,,,,,
,,,,,,,,,,,,,,,,,,,,,,,,,,,,,,,,,,,,,,,,,,,5eacad39ef271f3206810eeb,5ff3a3eaf4e2339dadb467c2,2021-01-04_17h26.04.118,Colour_Similarity_Experiment_v1,2020.1.2,Win32,60,5ff3a352adaa099f7659f8cc,,,,,,,,,,,,,,,,,,,,PF,,,,,,,,7,1.86381,,,,,,,,,,,,,,,,,,,,,,,,,7,46,95,1,0,0,response1disk,4,236,8,0,1,0,0,rectangle,8,0,1,0,0,1,6,0,0.00139,8,0,1,0,0,0,73,73,43,1,,,,,,,,,,,,,,,,,,,,,
,,,,,,,,,,,,,,,,,,,,,,,,,,,,,,,,,,,,,,,,,,,5eacad39ef271f3206810eeb,5ff3a3eaf4e2339dadb467c2,2021-01-04_17h26.04.118,Colour_Similarity_Experiment_v1,2020.1.2,Win32,60,5ff3a352adaa099f7659f8cc,,,,,,,,,,,,,,,,,,,,FF,,,,,,,,7,1.94062,,,,,,,,,,,,,,,,,,,,,,,,,5,60,85,1,0,0,response1disk,1,237,-16,13,1,0,0,rectangle,-16,13,1,0,0,1,1,0,0.002545,-16,13,1,0,0,0,74,74,131,1,,,,,,,,,,,,,,,,,,,,,
,,,,,,,,,,,,,,,,,,,,,,,,,,,,,,,,,,,,,,,,,,,5eacad39ef271f3206810eeb,5ff3a3eaf4e2339dadb467c2,2021-01-04_17h26.04.118,Colour_Similarity_Experiment_v1,2020.1.2,Win32,60,5ff3a352adaa099f7659f8cc,,,,,,,,,,,,,,,,,,,,PF,,,,,,,,7,1.67331,,,,,,,,,,,,,,,,,,,,,,,,,7,34,58,1,0,0,response1disk,3,238,-13,-2,1,0,0,rectangle,-13,-2,1,0,0,1,6,0,0.002865,-13,-2,1,0,0,0,75,75,81,1,,,,,,,,,,,,,,,,,,,,,
,,,,,,,,,,,,,,,,,,,,,,,,,,,,,,,,,,,,,,,,,,,5eacad39ef271f3206810eeb,5ff3a3eaf4e2339dadb467c2,2021-01-04_17h26.04.118,Colour_Similarity_Experiment_v1,2020.1.2,Win32,60,5ff3a352adaa099f7659f8cc,,,,,,,,,,,,,,,,,,,,PF,,,,,,,,5,4.914815,,,,,,,,,,,,,,,,,,,,,,,,,7,64,-37,1,0,0,response3disk,6,239,21,-1,1,0,0,rectangle,21,-1,1,0,0,1,0,0,0.0012,21,-1,1,0,0,0,76,76,29,1,,,,,,,,,,,,,,,,,,,,,
,,,,,,,,,,,,,,,,,,,,,,,,,,,,,,,,,,,,,,,,,,,5eacad39ef271f3206810eeb,5ff3a3eaf4e2339dadb467c2,2021-01-04_17h26.04.118,Colour_Similarity_Experiment_v1,2020.1.2,Win32,60,5ff3a352adaa099f7659f8cc,,,,,,,,,,,,,,,,,,,,PF,,,,,,,,7,1.62725,,,,,,,,,,,,,,,,,,,,,,,,,2,44,79,1,0,0,response1disk,1,240,-7,-4,1,0,0,rectangle,-7,-4,1,0,0,1,3,0,0.003055,-7,-4,1,0,0,0,77,77,9,1,,,,,,,,,,,,,,,,,,,,,
,,,,,,,,,,,,,,,,,,,,,,,,,,,,,,,,,,,,,,,,,,,5eacad39ef271f3206810eeb,5ff3a3eaf4e2339dadb467c2,2021-01-04_17h26.04.118,Colour_Similarity_Experiment_v1,2020.1.2,Win32,60,5ff3a352adaa099f7659f8cc,,,,,,,,,,,,,,,,,,,,PF,,,,,,,,7,1.28184,,,,,,,,,,,,,,,,,,,,,,,,,3,30,65,1,0,0,response1disk,6,241,6,13,1,0,0,rectangle,6,13,1,0,0,1,5,0,0.00114,6,13,1,0,0,0,78,78,47,1,,,,,,,,,,,,,,,,,,,,,
,,,,,,,,,,,,,,,,,,,,,,,,,,,,,,,,,,,,,,,,,,,5eacad39ef271f3206810eeb,5ff3a3eaf4e2339dadb467c2,2021-01-04_17h26.04.118,Colour_Similarity_Experiment_v1,2020.1.2,Win32,60,5ff3a352adaa099f7659f8cc,,,,,,,,,,,,,,,,,,,,FF,,,,,,,,7,1.224075,,,,,,,,,,,,,,,,,,,,,,,,,9,34,47,1,0,0,response1disk,6,242,-4,-3,1,0,0,rectangle,-4,-3,1,0,0,1,1,0,0.001335,-4,-3,1,0,0,0,79,79,117,1,,,,,,,,,,,,,,,,,,,,,
