key_resp.keys,key_resp.rt,key_resp_16.keys,key_resp_16.rt,key_resp_2.keys,key_resp_2.rt,X Scale,ratio_pxpermm,screen_size_x,screen_size_y,testsize,key_resp_3.keys,key_resp_3.rt,key_resp_4.keys,key_resp_4.rt,line_size,key_resp_5.keys,key_resp_5.rt,key_resp_6.keys,key_resp_6.rt,key_resp_8.keys,key_resp_8.rt,key_resp_7.keys,key_resp_7.rt,key_resp_12.keys,key_resp_12.rt,key_resp_11.keys,key_resp_11.rt,key_resp_18.keys,key_resp_18.rt,key_resp_21.keys,key_resp_21.rt,key_resp_13.keys,key_resp_13.rt,key_resp_19.keys,key_resp_19.rt,ballposx,viewer_distance,trials.thisRepN,trials.thisTrialN,trials.thisN,trials.thisIndex,trials.ran,participant,session,date,expName,psychopyVersion,OS,frameRate,study_id,viewerdistancecm,DVA_to_distance,radius_F,radius_P,r_F,R_P,key_resp_20.keys,key_resp_20.rt,key_resp_14.keys,key_resp_14.rt,key_resp_15.keys,key_resp_15.rt,key_resp_17.keys,key_resp_17.rt,key_resp_9.keys,key_resp_9.rt,key_resp_10.keys,key_resp_10.rt,Colour_1,Ecc,mouse_5.x,mouse_5.y,mouse_5.leftButton,mouse_5.midButton,mouse_5.rightButton,mouse_5.clicked_name,Colour_2,similarity,response_time,mouse_10.x,mouse_10.y,mouse_10.leftButton,mouse_10.midButton,mouse_10.rightButton,mouse_10.clicked_name,mouse_7.x,mouse_7.y,mouse_7.leftButton,mouse_7.midButton,mouse_7.rightButton,catchnumberprac,mouse_6.x,mouse_6.y,mouse_6.leftButton,mouse_6.midButton,mouse_6.rightButton,duringprac.thisRepN,duringprac.thisTrialN,duringprac.thisN,duringprac.thisIndex,duringprac.ran,mouse_7.clicked_name,catchprac,mouse_6.clicked_name,key_resp_22.keys,key_resp_22.rt,Colour1,mouse.x,mouse.y,mouse.leftButton,mouse.midButton,mouse.rightButton,mouse.clicked_name,Colour2,trialnumber,mouse_2.x,mouse_2.y,mouse_2.leftButton,mouse_2.midButton,mouse_2.rightButton,mouse_2.clicked_name,mouse_3.x,mouse_3.y,mouse_3.leftButton,mouse_3.midButton,mouse_3.rightButton,catchresponse,catchnumber,Catch,response_time_catch,mouse_11.x,mouse_11.y,mouse_11.leftButton,mouse_11.midButton,mouse_11.rightButton,trials_2.thisRepN,trials_2.thisTrialN,trials_2.thisN,trials_2.thisIndex,trials_2.ran,mouse_3.clicked_name,mouse_11.clicked_name,trials_3.thisRepN,trials_3.thisTrialN,trials_3.thisN,trials_3.thisIndex,trials_3.ran,answer1,rt1,answer2,rt2,answer3,rt3,answer4,rt4,answer5,rt5,answer6,rt6,answer7,rt7
space,92.900165,space,13.10623,space,6.153055,54,5.4,355.5555556,160,1920,space,12.05882,space,6.616105,108,space,6.64921,space,12.534065,space,0.88174,space,1.3837,space,4.19931,space,4.95005,space,13.30417,space,8.55961,space,5.022725,return,12.56243,-1454.4,1714.252897,0,0,0,0,1,5edbb1b58c2917046a9151d4,5ff3a3880538db50cfc60c88,2021-01-04_23h24.04.923,Colour_Similarity_Experiment_v1,2020.1.2,Win32,60,5ff3a352adaa099f7659f8cc,,,,,,,,,,,,,,,,,,,,,,,,,,,,,,,,,,,,,,,,,,,,,,,,,,,,,,,,,,,,,,,,,,,,,,,,,,,,,,,,,,,,,,,,,,,,,,,,,,,,,,,,,,,,,,,
,,,,,,,,,,,,,,,,,,,,,,,,,,,,,,,,,,return,10.097025,-1028.16,1385.47178,1,0,1,0,1,5edbb1b58c2917046a9151d4,5ff3a3880538db50cfc60c88,2021-01-04_23h24.04.923,Colour_Similarity_Experiment_v1,2020.1.2,Win32,60,5ff3a352adaa099f7659f8cc,,,,,,,,,,,,,,,,,,,,,,,,,,,,,,,,,,,,,,,,,,,,,,,,,,,,,,,,,,,,,,,,,,,,,,,,,,,,,,,,,,,,,,,,,,,,,,,,,,,,,,,,,,,,,,,
,,,,,,,,,,,,,,,,,,,,,,,,,,,,,,,,,,return,10.539265,-1105.92,1445.452119,2,0,2,0,1,5edbb1b58c2917046a9151d4,5ff3a3880538db50cfc60c88,2021-01-04_23h24.04.923,Colour_Similarity_Experiment_v1,2020.1.2,Win32,60,5ff3a352adaa099f7659f8cc,,,,,,,,,,,,,,,,,,,,,,,,,,,,,,,,,,,,,,,,,,,,,,,,,,,,,,,,,,,,,,,,,,,,,,,,,,,,,,,,,,,,,,,,,,,,,,,,,,,,,,,,,,,,,,,
,,,,,,,,,,,,,,,,,,,,,,,,,,,,,,,,,,return,9.952905,-1002.24,1365.478334,3,0,3,0,1,5edbb1b58c2917046a9151d4,5ff3a3880538db50cfc60c88,2021-01-04_23h24.04.923,Colour_Similarity_Experiment_v1,2020.1.2,Win32,60,5ff3a352adaa099f7659f8cc,,,,,,,,,,,,,,,,,,,,,,,,,,,,,,,,,,,,,,,,,,,,,,,,,,,,,,,,,,,,,,,,,,,,,,,,,,,,,,,,,,,,,,,,,,,,,,,,,,,,,,,,,,,,,,,
,,,,,,,,,,,,,,,,,,,,,,,,,,,,,,,,,,return,9.90247,-993.6,1358.813852,4,0,4,0,1,5edbb1b58c2917046a9151d4,5ff3a3880538db50cfc60c88,2021-01-04_23h24.04.923,Colour_Similarity_Experiment_v1,2020.1.2,Win32,60,5ff3a352adaa099f7659f8cc,,,,,,,,,,,,,,,,,,,,,,,,,,,,,,,,,,,,,,,,,,,,,,,,,,,,,,,,,,,,,,,,,,,,,,,,,,,,,,,,,,,,,,,,,,,,,,,,,,,,,,,,,,,,,,,
,,,,,,,,,,,,,,,,,,,,,,,,,,,,,,,,,,,,,,,,,,,5edbb1b58c2917046a9151d4,5ff3a3880538db50cfc60c88,2021-01-04_23h24.04.923,Colour_Similarity_Experiment_v1,2020.1.2,Win32,60,5ff3a352adaa099f7659f8cc,139,24.26253157,196.5265057,1310.176705,131.0176705,589.5795172,space,3.98353,space,3.56052,space,50.700415,space,6.69516,space,4.319175,space,4.55068,7,PF,38,-82,1,0,0,response3disk_5,5,4,28.03042,-2.999938965,7.999969482,1,0,0,rectangle_8,-2.999938965,7.999969482,1,0,0,5,-2.999938965,7.999969482,1,0,0,0,0,0,2,1,,,,,,,,,,,,,,,,,,,,,,,,,,,,,,,,,,,,,,,,,,,,,,,,,,,,,,,,,,,,
,,,,,,,,,,,,,,,,,,,,,,,,,,,,,,,,,,,,,,,,,,,5edbb1b58c2917046a9151d4,5ff3a3880538db50cfc60c88,2021-01-04_23h24.04.923,Colour_Similarity_Experiment_v1,2020.1.2,Win32,60,5ff3a352adaa099f7659f8cc,,,,,,,,,,,,,,,,,,,4,PF,-62,27,1,0,0,response7disk_5,4,1,3.34621,-1,2,1,0,0,rectangle_8,-1,2,1,0,0,5,-1,2,1,0,0,0,1,1,1,1,,,,,,,,,,,,,,,,,,,,,,,,,,,,,,,,,,,,,,,,,,,,,,,,,,,,,,,,,,,,
,,,,,,,,,,,,,,,,,,,,,,,,,,,,,,,,,,,,,,,,,,,5edbb1b58c2917046a9151d4,5ff3a3880538db50cfc60c88,2021-01-04_23h24.04.923,Colour_Similarity_Experiment_v1,2020.1.2,Win32,60,5ff3a352adaa099f7659f8cc,,,,,,,,,,,,,,,,,,,4,FF,42.00006104,59,1,0,0,response1disk_5,6,7,3.710145,13,1,1,0,0,rectangle_8,13,1,1,0,0,5,13,1,1,0,0,0,2,2,5,1,,,,,,,,,,,,,,,,,,,,,,,,,,,,,,,,,,,,,,,,,,,,,,,,,,,,,,,,,,,,
,,,,,,,,,,,,,,,,,,,,,,,,,,,,,,,,,,,,,,,,,,,5edbb1b58c2917046a9151d4,5ff3a3880538db50cfc60c88,2021-01-04_23h24.04.923,Colour_Similarity_Experiment_v1,2020.1.2,Win32,60,5ff3a352adaa099f7659f8cc,,,,,,,,,,,,,,,,,,,4,FF,49,80,1,0,0,response1disk_5,1,7,1.256325,1,4,1,0,0,rectangle_8,1,4,1,0,0,5,1,4,1,0,0,0,3,3,0,1,,,,,,,,,,,,,,,,,,,,,,,,,,,,,,,,,,,,,,,,,,,,,,,,,,,,,,,,,,,,
,,,,,,,,,,,,,,,,,,,,,,,,,,,,,,,,,,,,,,,,,,,5edbb1b58c2917046a9151d4,5ff3a3880538db50cfc60c88,2021-01-04_23h24.04.923,Colour_Similarity_Experiment_v1,2020.1.2,Win32,60,5ff3a352adaa099f7659f8cc,,,,,,,,,,,,,,,,,,,1,PF,40,72.99996948,1,0,0,response1disk_5,6,7,1.1404,0,-6,1,0,0,rectangle_8,81,-40,1,0,0,5,-4,4,1,0,0,0,4,4,6,1,response3disk_7,5,rectangle_4,,,,,,,,,,,,,,,,,,,,,,,,,,,,,,,,,,,,,,,,,,,,,,,,,,,,,,,,,
,,,,,,,,,,,,,,,,,,,,,,,,,,,,,,,,,,,,,,,,,,,5edbb1b58c2917046a9151d4,5ff3a3880538db50cfc60c88,2021-01-04_23h24.04.923,Colour_Similarity_Experiment_v1,2020.1.2,Win32,60,5ff3a352adaa099f7659f8cc,,,,,,,,,,,,,,,,,,,4,FF,63,-22.00003052,1,0,0,response3disk_5,5,5,2.46653,9,2,1,0,0,rectangle_8,69,-34,1,0,0,5,-7.999938965,4,1,0,0,0,5,5,3,1,response3disk_7,5,rectangle_4,,,,,,,,,,,,,,,,,,,,,,,,,,,,,,,,,,,,,,,,,,,,,,,,,,,,,,,,,
,,,,,,,,,,,,,,,,,,,,,,,,,,,,,,,,,,,,,,,,,,,5edbb1b58c2917046a9151d4,5ff3a3880538db50cfc60c88,2021-01-04_23h24.04.923,Colour_Similarity_Experiment_v1,2020.1.2,Win32,60,5ff3a352adaa099f7659f8cc,,,,,,,,,,,,,,,,,,,3,PF,88,44,1,0,0,response1disk_5,2,6,2.414975,-2.999938965,-1,1,0,0,rectangle_8,-2.999938965,-1,1,0,0,5,-2.999938965,-1,1,0,0,0,6,6,4,1,,,,,,,,,,,,,,,,,,,,,,,,,,,,,,,,,,,,,,,,,,,,,,,,,,,,,,,,,,,,
,,,,,,,,,,,,,,,,,,,,,,,,,,,,,,,,,,,,,,,,,,,5edbb1b58c2917046a9151d4,5ff3a3880538db50cfc60c88,2021-01-04_23h24.04.923,Colour_Similarity_Experiment_v1,2020.1.2,Win32,60,5ff3a352adaa099f7659f8cc,,,,,,,,,,,,,,,,,,,,PF,,,,,,,,7,2.24972,,,,,,,,,,,,,,,,,,,,,,,,,,space,3.29147,7,39,64,1,0,0,response1disk,8,1,-2,-1,1,0,0,rectangle,-2,-1,1,0,0,,7,0,0.001095,-2,-1,1,0,0,0,0,0,140,1,,,,,,,,,,,,,,,,,,,,,
,,,,,,,,,,,,,,,,,,,,,,,,,,,,,,,,,,,,,,,,,,,5edbb1b58c2917046a9151d4,5ff3a3880538db50cfc60c88,2021-01-04_23h24.04.923,Colour_Similarity_Experiment_v1,2020.1.2,Win32,60,5ff3a352adaa099f7659f8cc,,,,,,,,,,,,,,,,,,,,PF,,,,,,,,2,2.18104,,,,,,,,,,,,,,,,,,,,,,,,,,,,7,-65,-26,1,0,0,response5disk,5,2,-2,4,1,0,0,rectangle,-2,4,1,0,0,,7,0,0.00066,-2,4,1,0,0,0,1,1,92,1,,,,,,,,,,,,,,,,,,,,,
,,,,,,,,,,,,,,,,,,,,,,,,,,,,,,,,,,,,,,,,,,,5edbb1b58c2917046a9151d4,5ff3a3880538db50cfc60c88,2021-01-04_23h24.04.923,Colour_Similarity_Experiment_v1,2020.1.2,Win32,60,5ff3a352adaa099f7659f8cc,,,,,,,,,,,,,,,,,,,,PF,,,,,,,,7,1.232085,,,,,,,,,,,,,,,,,,,,,,,,,,,,1,38,72,1,0,0,response1disk,6,3,-2.999938965,0,1,0,0,rectangle,-2.999938965,0,1,0,0,,6,0,0.000625,-2.999938965,0,1,0,0,0,2,2,144,1,,,,,,,,,,,,,,,,,,,,,
,,,,,,,,,,,,,,,,,,,,,,,,,,,,,,,,,,,,,,,,,,,5edbb1b58c2917046a9151d4,5ff3a3880538db50cfc60c88,2021-01-04_23h24.04.923,Colour_Similarity_Experiment_v1,2020.1.2,Win32,60,5ff3a352adaa099f7659f8cc,,,,,,,,,,,,,,,,,,,,FF,,,,,,,,7,7.716685,,,,,,,,,,,,,,,,,,,,,,,,,,,,3,40,84,1,0,0,response1disk,9,4,1,2.999969482,1,0,0,rectangle,1,2.999969482,1,0,0,,0,0,0.00069,1,2.999969482,1,0,0,0,3,3,143,1,,,,,,,,,,,,,,,,,,,,,
,,,,,,,,,,,,,,,,,,,,,,,,,,,,,,,,,,,,,,,,,,,5edbb1b58c2917046a9151d4,5ff3a3880538db50cfc60c88,2021-01-04_23h24.04.923,Colour_Similarity_Experiment_v1,2020.1.2,Win32,60,5ff3a352adaa099f7659f8cc,,,,,,,,,,,,,,,,,,,,PF,,,,,,,,7,3.738895,,,,,,,,,,,,,,,,,,,,,,,,,,,,4,33,81,1,0,0,response1disk,7,5,-2,1,1,0,0,rectangle,-2,1,1,0,0,,7,0,0.00069,-2,1,1,0,0,0,4,4,38,1,,,,,,,,,,,,,,,,,,,,,
,,,,,,,,,,,,,,,,,,,,,,,,,,,,,,,,,,,,,,,,,,,5edbb1b58c2917046a9151d4,5ff3a3880538db50cfc60c88,2021-01-04_23h24.04.923,Colour_Similarity_Experiment_v1,2020.1.2,Win32,60,5ff3a352adaa099f7659f8cc,,,,,,,,,,,,,,,,,,,,FF,,,,,,,,7,6.943655,,,,,,,,,,,,,,,,,,,,,,,,,,,,7,32.00006104,85,1,0,0,response1disk,1,6,-5,7,1,0,0,rectangle,-5,7,1,0,0,,0,0,0.00064,-5,7,1,0,0,0,5,5,132,1,,,,,,,,,,,,,,,,,,,,,
,,,,,,,,,,,,,,,,,,,,,,,,,,,,,,,,,,,,,,,,,,,5edbb1b58c2917046a9151d4,5ff3a3880538db50cfc60c88,2021-01-04_23h24.04.923,Colour_Similarity_Experiment_v1,2020.1.2,Win32,60,5ff3a352adaa099f7659f8cc,,,,,,,,,,,,,,,,,,,,PF,,,,,,,,6,1.44392,,,,,,,,,,,,,,,,,,,,,,,,,,,,5,76,35,1,0,0,response1disk,2,7,-5,6,1,0,0,rectangle,-5,6,1,0,0,,1,0,0.000595,-5,6,1,0,0,0,6,6,129,1,,,,,,,,,,,,,,,,,,,,,
,,,,,,,,,,,,,,,,,,,,,,,,,,,,,,,,,,,,,,,,,,,5edbb1b58c2917046a9151d4,5ff3a3880538db50cfc60c88,2021-01-04_23h24.04.923,Colour_Similarity_Experiment_v1,2020.1.2,Win32,60,5ff3a352adaa099f7659f8cc,,,,,,,,,,,,,,,,,,,,PF,,,,,,,,7,1.373435,,,,,,,,,,,,,,,,,,,,,,,,,,,,6,33,77.99996948,1,0,0,response1disk,8,8,-6,5,1,0,0,rectangle,-6,5,1,0,0,,2,0,0.00062,-6,5,1,0,0,0,7,7,64,1,,,,,,,,,,,,,,,,,,,,,
,,,,,,,,,,,,,,,,,,,,,,,,,,,,,,,,,,,,,,,,,,,5edbb1b58c2917046a9151d4,5ff3a3880538db50cfc60c88,2021-01-04_23h24.04.923,Colour_Similarity_Experiment_v1,2020.1.2,Win32,60,5ff3a352adaa099f7659f8cc,,,,,,,,,,,,,,,,,,,,FF,,,,,,,,7,1.776335,,,,,,,,,,,,,,,,,,,,,,,,,,,,8,31,89,1,0,0,response1disk,2,9,-1,10,1,0,0,rectangle,-1,10,1,0,0,,2,0,0.000615,-1,10,1,0,0,0,8,8,22,1,,,,,,,,,,,,,,,,,,,,,
,,,,,,,,,,,,,,,,,,,,,,,,,,,,,,,,,,,,,,,,,,,5edbb1b58c2917046a9151d4,5ff3a3880538db50cfc60c88,2021-01-04_23h24.04.923,Colour_Similarity_Experiment_v1,2020.1.2,Win32,60,5ff3a352adaa099f7659f8cc,,,,,,,,,,,,,,,,,,,,FF,,,,,,,,3,1.845275,,,,,,,,,,,,,,,,,,,,,,,,,,,,3,-37.99993896,-78.00006104,1,0,0,response5disk,4,10,-1,6,1,0,0,rectangle,-1,6,1,0,0,,7,0,0.00069,-1,6,1,0,0,0,9,9,110,1,,,,,,,,,,,,,,,,,,,,,
,,,,,,,,,,,,,,,,,,,,,,,,,,,,,,,,,,,,,,,,,,,5edbb1b58c2917046a9151d4,5ff3a3880538db50cfc60c88,2021-01-04_23h24.04.923,Colour_Similarity_Experiment_v1,2020.1.2,Win32,60,5ff3a352adaa099f7659f8cc,,,,,,,,,,,,,,,,,,,,PF,,,,,,,,2,1.59475,,,,,,,,,,,,,,,,,,,,,,,,,,,,7,-75,-30,1,0,0,response5disk,6,11,-1,7,1,0,0,rectangle,-1,7,1,0,0,,7,0,0.00059,-1,7,1,0,0,0,10,10,29,1,,,,,,,,,,,,,,,,,,,,,
,,,,,,,,,,,,,,,,,,,,,,,,,,,,,,,,,,,,,,,,,,,5edbb1b58c2917046a9151d4,5ff3a3880538db50cfc60c88,2021-01-04_23h24.04.923,Colour_Similarity_Experiment_v1,2020.1.2,Win32,60,5ff3a352adaa099f7659f8cc,,,,,,,,,,,,,,,,,,,,FF,,,,,,,,7,1.77982,,,,,,,,,,,,,,,,,,,,,,,,,,,,9,36,87,1,0,0,response1disk,5,12,-2,7.999969482,1,0,0,rectangle,-2,7.999969482,1,0,0,,7,0,0.000605,-2,7.999969482,1,0,0,0,11,11,128,1,,,,,,,,,,,,,,,,,,,,,
,,,,,,,,,,,,,,,,,,,,,,,,,,,,,,,,,,,,,,,,,,,5edbb1b58c2917046a9151d4,5ff3a3880538db50cfc60c88,2021-01-04_23h24.04.923,Colour_Similarity_Experiment_v1,2020.1.2,Win32,60,5ff3a352adaa099f7659f8cc,,,,,,,,,,,,,,,,,,,,PF,,,,,,,,7,1.355045,,,,,,,,,,,,,,,,,,,,,,,,,,,,5,34,72,1,0,0,response1disk,1,13,1,5,1,0,0,rectangle,-82,37,1,0,0,1,1,1,1.678625,1,0,1,0,0,0,12,12,159,1,response7disk_3,rectangle,,,,,,,,,,,,,,,,,,,
,,,,,,,,,,,,,,,,,,,,,,,,,,,,,,,,,,,,,,,,,,,5edbb1b58c2917046a9151d4,5ff3a3880538db50cfc60c88,2021-01-04_23h24.04.923,Colour_Similarity_Experiment_v1,2020.1.2,Win32,60,5ff3a352adaa099f7659f8cc,,,,,,,,,,,,,,,,,,,,FF,,,,,,,,0,1.396805,,,,,,,,,,,,,,,,,,,,,,,,,,,,7,-32,86,1,0,0,response7disk,7,14,6,6,1,0,0,rectangle,6,6,1,0,0,1,6,0,0.000645,6,6,1,0,0,0,13,13,34,1,,,,,,,,,,,,,,,,,,,,,
,,,,,,,,,,,,,,,,,,,,,,,,,,,,,,,,,,,,,,,,,,,5edbb1b58c2917046a9151d4,5ff3a3880538db50cfc60c88,2021-01-04_23h24.04.923,Colour_Similarity_Experiment_v1,2020.1.2,Win32,60,5ff3a352adaa099f7659f8cc,,,,,,,,,,,,,,,,,,,,FF,,,,,,,,7,1.131625,,,,,,,,,,,,,,,,,,,,,,,,,,,,6,37.00006104,92.99996948,1,0,0,response1disk,1,15,-2,6,1,0,0,rectangle,-2,6,1,0,0,1,1,0,0.000615,-2,6,1,0,0,0,14,14,5,1,,,,,,,,,,,,,,,,,,,,,
,,,,,,,,,,,,,,,,,,,,,,,,,,,,,,,,,,,,,,,,,,,5edbb1b58c2917046a9151d4,5ff3a3880538db50cfc60c88,2021-01-04_23h24.04.923,Colour_Similarity_Experiment_v1,2020.1.2,Win32,60,5ff3a352adaa099f7659f8cc,,,,,,,,,,,,,,,,,,,,FF,,,,,,,,7,0.769245,,,,,,,,,,,,,,,,,,,,,,,,,,,,5,36,77,1,0,0,response1disk,1,16,-5,5,1,0,0,rectangle,-5,5,1,0,0,1,7,0,0.000615,-5,5,1,0,0,0,15,15,131,1,,,,,,,,,,,,,,,,,,,,,
,,,,,,,,,,,,,,,,,,,,,,,,,,,,,,,,,,,,,,,,,,,5edbb1b58c2917046a9151d4,5ff3a3880538db50cfc60c88,2021-01-04_23h24.04.923,Colour_Similarity_Experiment_v1,2020.1.2,Win32,60,5ff3a352adaa099f7659f8cc,,,,,,,,,,,,,,,,,,,,PF,,,,,,,,7,1.13762,,,,,,,,,,,,,,,,,,,,,,,,,,,,5,28,89,1,0,0,response1disk,8,17,-11,4,1,0,0,rectangle,-11,4,1,0,0,1,4,0,0.00065,-11,4,1,0,0,0,16,16,149,1,,,,,,,,,,,,,,,,,,,,,
,,,,,,,,,,,,,,,,,,,,,,,,,,,,,,,,,,,,,,,,,,,5edbb1b58c2917046a9151d4,5ff3a3880538db50cfc60c88,2021-01-04_23h24.04.923,Colour_Similarity_Experiment_v1,2020.1.2,Win32,60,5ff3a352adaa099f7659f8cc,,,,,,,,,,,,,,,,,,,,PF,,,,,,,,7,0.884935,,,,,,,,,,,,,,,,,,,,,,,,,,,,8,26,79,1,0,0,response1disk,1,18,-6,0,1,0,0,rectangle,-6,0,1,0,0,1,6,0,0.000685,-6,0,1,0,0,0,17,17,57,1,,,,,,,,,,,,,,,,,,,,,
,,,,,,,,,,,,,,,,,,,,,,,,,,,,,,,,,,,,,,,,,,,5edbb1b58c2917046a9151d4,5ff3a3880538db50cfc60c88,2021-01-04_23h24.04.923,Colour_Similarity_Experiment_v1,2020.1.2,Win32,60,5ff3a352adaa099f7659f8cc,,,,,,,,,,,,,,,,,,,,PF,,,,,,,,0,0.99432,,,,,,,,,,,,,,,,,,,,,,,,,,,,1,-32,90,1,0,0,response7disk,1,19,-4,11,1,0,0,rectangle,78,-30,1,0,0,5,5,1,1.364035,-4,4,1,0,0,0,18,18,76,1,response3disk_3,rectangle,,,,,,,,,,,,,,,,,,,
,,,,,,,,,,,,,,,,,,,,,,,,,,,,,,,,,,,,,,,,,,,5edbb1b58c2917046a9151d4,5ff3a3880538db50cfc60c88,2021-01-04_23h24.04.923,Colour_Similarity_Experiment_v1,2020.1.2,Win32,60,5ff3a352adaa099f7659f8cc,,,,,,,,,,,,,,,,,,,,FF,,,,,,,,7,0.94587,,,,,,,,,,,,,,,,,,,,,,,,,,,,8,25,72.99996948,1,0,0,response1disk,1,20,-6,10,1,0,0,rectangle,-6,10,1,0,0,5,4,0,0.00062,-6,10,1,0,0,0,19,19,20,1,,,,,,,,,,,,,,,,,,,,,
,,,,,,,,,,,,,,,,,,,,,,,,,,,,,,,,,,,,,,,,,,,5edbb1b58c2917046a9151d4,5ff3a3880538db50cfc60c88,2021-01-04_23h24.04.923,Colour_Similarity_Experiment_v1,2020.1.2,Win32,60,5ff3a352adaa099f7659f8cc,,,,,,,,,,,,,,,,,,,,PF,,,,,,,,7,0.99272,,,,,,,,,,,,,,,,,,,,,,,,,,,,5,41,91,1,0,0,response1disk,9,21,-4,7.999969482,1,0,0,rectangle,-41,81,1,0,0,0,0,1,1.89705,3,6,1,0,0,0,20,20,136,1,response7disk_3,rectangle,,,,,,,,,,,,,,,,,,,
,,,,,,,,,,,,,,,,,,,,,,,,,,,,,,,,,,,,,,,,,,,5edbb1b58c2917046a9151d4,5ff3a3880538db50cfc60c88,2021-01-04_23h24.04.923,Colour_Similarity_Experiment_v1,2020.1.2,Win32,60,5ff3a352adaa099f7659f8cc,,,,,,,,,,,,,,,,,,,,PF,,,,,,,,7,1.015295,,,,,,,,,,,,,,,,,,,,,,,,,,,,9,39,100,1,0,0,response1disk,7,22,2.000061035,7.999969482,1,0,0,rectangle,2.000061035,7.999969482,1,0,0,0,2,0,0.00066,2.000061035,7.999969482,1,0,0,0,21,21,121,1,,,,,,,,,,,,,,,,,,,,,
,,,,,,,,,,,,,,,,,,,,,,,,,,,,,,,,,,,,,,,,,,,5edbb1b58c2917046a9151d4,5ff3a3880538db50cfc60c88,2021-01-04_23h24.04.923,Colour_Similarity_Experiment_v1,2020.1.2,Win32,60,5ff3a352adaa099f7659f8cc,,,,,,,,,,,,,,,,,,,,PF,,,,,,,,7,0.88628,,,,,,,,,,,,,,,,,,,,,,,,,,,,6,30,82.99996948,1,0,0,response1disk,3,23,-9,-4,1,0,0,rectangle,-9,-4,1,0,0,0,4,0,0.000595,-9,-4,1,0,0,0,22,22,26,1,,,,,,,,,,,,,,,,,,,,,
,,,,,,,,,,,,,,,,,,,,,,,,,,,,,,,,,,,,,,,,,,,5edbb1b58c2917046a9151d4,5ff3a3880538db50cfc60c88,2021-01-04_23h24.04.923,Colour_Similarity_Experiment_v1,2020.1.2,Win32,60,5ff3a352adaa099f7659f8cc,,,,,,,,,,,,,,,,,,,,FF,,,,,,,,7,1.2566,,,,,,,,,,,,,,,,,,,,,,,,,,,,2,36,87.99996948,1,0,0,response1disk,1,24,1,2,1,0,0,rectangle,1,2,1,0,0,0,2,0,0.00058,1,2,1,0,0,0,23,23,85,1,,,,,,,,,,,,,,,,,,,,,
,,,,,,,,,,,,,,,,,,,,,,,,,,,,,,,,,,,,,,,,,,,5edbb1b58c2917046a9151d4,5ff3a3880538db50cfc60c88,2021-01-04_23h24.04.923,Colour_Similarity_Experiment_v1,2020.1.2,Win32,60,5ff3a352adaa099f7659f8cc,,,,,,,,,,,,,,,,,,,,PF,,,,,,,,7,1.261045,,,,,,,,,,,,,,,,,,,,,,,,,,,,2,36,71,1,0,0,response1disk,1,25,-1,7,1,0,0,rectangle,-1,7,1,0,0,0,6,0,0.0006,-1,7,1,0,0,0,24,24,9,1,,,,,,,,,,,,,,,,,,,,,
,,,,,,,,,,,,,,,,,,,,,,,,,,,,,,,,,,,,,,,,,,,5edbb1b58c2917046a9151d4,5ff3a3880538db50cfc60c88,2021-01-04_23h24.04.923,Colour_Similarity_Experiment_v1,2020.1.2,Win32,60,5ff3a352adaa099f7659f8cc,,,,,,,,,,,,,,,,,,,,FF,,,,,,,,6,1.718435,,,,,,,,,,,,,,,,,,,,,,,,,,,,5,72,40,1,0,0,response1disk,3,26,-1,0,1,0,0,rectangle,-1,0,1,0,0,0,5,0,0.00061,-1,0,1,0,0,0,25,25,25,1,,,,,,,,,,,,,,,,,,,,,
,,,,,,,,,,,,,,,,,,,,,,,,,,,,,,,,,,,,,,,,,,,5edbb1b58c2917046a9151d4,5ff3a3880538db50cfc60c88,2021-01-04_23h24.04.923,Colour_Similarity_Experiment_v1,2020.1.2,Win32,60,5ff3a352adaa099f7659f8cc,,,,,,,,,,,,,,,,,,,,PF,,,,,,,,7,1.29426,,,,,,,,,,,,,,,,,,,,,,,,,,,,6,38,87.99996948,1,0,0,response1disk,9,27,-7.999938965,1,1,0,0,rectangle,-7.999938965,1,1,0,0,0,6,0,0.000595,-7.999938965,1,1,0,0,0,26,26,45,1,,,,,,,,,,,,,,,,,,,,,
,,,,,,,,,,,,,,,,,,,,,,,,,,,,,,,,,,,,,,,,,,,5edbb1b58c2917046a9151d4,5ff3a3880538db50cfc60c88,2021-01-04_23h24.04.923,Colour_Similarity_Experiment_v1,2020.1.2,Win32,60,5ff3a352adaa099f7659f8cc,,,,,,,,,,,,,,,,,,,,PF,,,,,,,,7,0.89707,,,,,,,,,,,,,,,,,,,,,,,,,,,,9,37.00006104,87,1,0,0,response1disk,4,28,-6,-2.000030518,1,0,0,rectangle,-6,-2.000030518,1,0,0,0,6,0,0.000605,-6,-2.000030518,1,0,0,0,27,27,114,1,,,,,,,,,,,,,,,,,,,,,
,,,,,,,,,,,,,,,,,,,,,,,,,,,,,,,,,,,,,,,,,,,5edbb1b58c2917046a9151d4,5ff3a3880538db50cfc60c88,2021-01-04_23h24.04.923,Colour_Similarity_Experiment_v1,2020.1.2,Win32,60,5ff3a352adaa099f7659f8cc,,,,,,,,,,,,,,,,,,,,FF,,,,,,,,6,1.25224,,,,,,,,,,,,,,,,,,,,,,,,,,,,9,82,39,1,0,0,response1disk,8,29,-2,5,1,0,0,rectangle,-2,5,1,0,0,0,7,0,0.00061,-2,5,1,0,0,0,28,28,6,1,,,,,,,,,,,,,,,,,,,,,
,,,,,,,,,,,,,,,,,,,,,,,,,,,,,,,,,,,,,,,,,,,5edbb1b58c2917046a9151d4,5ff3a3880538db50cfc60c88,2021-01-04_23h24.04.923,Colour_Similarity_Experiment_v1,2020.1.2,Win32,60,5ff3a352adaa099f7659f8cc,,,,,,,,,,,,,,,,,,,,FF,,,,,,,,7,0.884865,,,,,,,,,,,,,,,,,,,,,,,,,,,,4,29,95,1,0,0,response1disk,1,30,-2.999938965,6,1,0,0,rectangle,-2.999938965,6,1,0,0,0,2,0,0.000705,-2.999938965,6,1,0,0,0,29,29,102,1,,,,,,,,,,,,,,,,,,,,,
,,,,,,,,,,,,,,,,,,,,,,,,,,,,,,,,,,,,,,,,,,,5edbb1b58c2917046a9151d4,5ff3a3880538db50cfc60c88,2021-01-04_23h24.04.923,Colour_Similarity_Experiment_v1,2020.1.2,Win32,60,5ff3a352adaa099f7659f8cc,,,,,,,,,,,,,,,,,,,,FF,,,,,,,,7,1.08823,,,,,,,,,,,,,,,,,,,,,,,,,,,,6,39,87,1,0,0,response1disk,8,31,6,10,1,0,0,rectangle,6,10,1,0,0,0,5,0,0.000595,6,10,1,0,0,0,30,30,133,1,,,,,,,,,,,,,,,,,,,,,
,,,,,,,,,,,,,,,,,,,,,,,,,,,,,,,,,,,,,,,,,,,5edbb1b58c2917046a9151d4,5ff3a3880538db50cfc60c88,2021-01-04_23h24.04.923,Colour_Similarity_Experiment_v1,2020.1.2,Win32,60,5ff3a352adaa099f7659f8cc,,,,,,,,,,,,,,,,,,,,FF,,,,,,,,0,1.116065,,,,,,,,,,,,,,,,,,,,,,,,,,,,1,-46,85,1,0,0,response7disk,1,32,7.000061035,2,1,0,0,rectangle,7.000061035,2,1,0,0,0,4,0,0.000665,7.000061035,2,1,0,0,0,31,31,151,1,,,,,,,,,,,,,,,,,,,,,
,,,,,,,,,,,,,,,,,,,,,,,,,,,,,,,,,,,,,,,,,,,5edbb1b58c2917046a9151d4,5ff3a3880538db50cfc60c88,2021-01-04_23h24.04.923,Colour_Similarity_Experiment_v1,2020.1.2,Win32,60,5ff3a352adaa099f7659f8cc,,,,,,,,,,,,,,,,,,,,PF,,,,,,,,7,4.328525,,,,,,,,,,,,,,,,,,,,,,,,,,,,6,39,84,1,0,0,response1disk,1,33,3,1,1,0,0,rectangle,3,1,1,0,0,0,6,0,0.00065,3,1,1,0,0,0,32,32,46,1,,,,,,,,,,,,,,,,,,,,,
,,,,,,,,,,,,,,,,,,,,,,,,,,,,,,,,,,,,,,,,,,,5edbb1b58c2917046a9151d4,5ff3a3880538db50cfc60c88,2021-01-04_23h24.04.923,Colour_Similarity_Experiment_v1,2020.1.2,Win32,60,5ff3a352adaa099f7659f8cc,,,,,,,,,,,,,,,,,,,,PF,,,,,,,,5,1.709885,,,,,,,,,,,,,,,,,,,,,,,,,,,,5,65,-27.00003052,1,0,0,response3disk,3,34,0,4,1,0,0,rectangle,0,4,1,0,0,0,6,0,0.00063,0,4,1,0,0,0,33,33,109,1,,,,,,,,,,,,,,,,,,,,,
,,,,,,,,,,,,,,,,,,,,,,,,,,,,,,,,,,,,,,,,,,,5edbb1b58c2917046a9151d4,5ff3a3880538db50cfc60c88,2021-01-04_23h24.04.923,Colour_Similarity_Experiment_v1,2020.1.2,Win32,60,5ff3a352adaa099f7659f8cc,,,,,,,,,,,,,,,,,,,,FF,,,,,,,,7,0.828305,,,,,,,,,,,,,,,,,,,,,,,,,,,,1,32.00006104,84,1,0,0,response1disk,4,35,0,4,1,0,0,rectangle,0,4,1,0,0,0,4,0,0.00057,0,4,1,0,0,0,34,34,135,1,,,,,,,,,,,,,,,,,,,,,
,,,,,,,,,,,,,,,,,,,,,,,,,,,,,,,,,,,,,,,,,,,5edbb1b58c2917046a9151d4,5ff3a3880538db50cfc60c88,2021-01-04_23h24.04.923,Colour_Similarity_Experiment_v1,2020.1.2,Win32,60,5ff3a352adaa099f7659f8cc,,,,,,,,,,,,,,,,,,,,PF,,,,,,,,1,2.17204,,,,,,,,,,,,,,,,,,,,,,,,,,,,6,-67.99993896,31,1,0,0,response7disk,4,36,-2.999938965,-1,1,0,0,rectangle,-2.999938965,-1,1,0,0,0,2,0,0.000575,-2.999938965,-1,1,0,0,0,35,35,33,1,,,,,,,,,,,,,,,,,,,,,
,,,,,,,,,,,,,,,,,,,,,,,,,,,,,,,,,,,,,,,,,,,5edbb1b58c2917046a9151d4,5ff3a3880538db50cfc60c88,2021-01-04_23h24.04.923,Colour_Similarity_Experiment_v1,2020.1.2,Win32,60,5ff3a352adaa099f7659f8cc,,,,,,,,,,,,,,,,,,,,FF,,,,,,,,7,0.829185,,,,,,,,,,,,,,,,,,,,,,,,,,,,7,44,87.99996948,1,0,0,response1disk,3,37,-1,2,1,0,0,rectangle,-1,2,1,0,0,0,5,0,0.00137,-1,2,1,0,0,0,36,36,73,1,,,,,,,,,,,,,,,,,,,,,
,,,,,,,,,,,,,,,,,,,,,,,,,,,,,,,,,,,,,,,,,,,5edbb1b58c2917046a9151d4,5ff3a3880538db50cfc60c88,2021-01-04_23h24.04.923,Colour_Similarity_Experiment_v1,2020.1.2,Win32,60,5ff3a352adaa099f7659f8cc,,,,,,,,,,,,,,,,,,,,FF,,,,,,,,7,0.81169,,,,,,,,,,,,,,,,,,,,,,,,,,,,6,36,82.99996948,1,0,0,response1disk,4,38,-9,-1,1,0,0,rectangle,-9,-1,1,0,0,0,0,0,0.00122,-9,-1,1,0,0,0,37,37,56,1,,,,,,,,,,,,,,,,,,,,,
,,,,,,,,,,,,,,,,,,,,,,,,,,,,,,,,,,,,,,,,,,,5edbb1b58c2917046a9151d4,5ff3a3880538db50cfc60c88,2021-01-04_23h24.04.923,Colour_Similarity_Experiment_v1,2020.1.2,Win32,60,5ff3a352adaa099f7659f8cc,,,,,,,,,,,,,,,,,,,,PF,,,,,,,,7,0.80914,,,,,,,,,,,,,,,,,,,,,,,,,,,,9,37.00006104,94,1,0,0,response1disk,2,39,4,11,1,0,0,rectangle,4,11,1,0,0,0,6,0,0.000595,4,11,1,0,0,0,38,38,157,1,,,,,,,,,,,,,,,,,,,,,
,,,,,,,,,,,,,,,,,,,,,,,,,,,,,,,,,,,,,,,,,,,5edbb1b58c2917046a9151d4,5ff3a3880538db50cfc60c88,2021-01-04_23h24.04.923,Colour_Similarity_Experiment_v1,2020.1.2,Win32,60,5ff3a352adaa099f7659f8cc,,,,,,,,,,,,,,,,,,,,PF,,,,,,,,7,0.778615,,,,,,,,,,,,,,,,,,,,,,,,,,,,3,37.00006104,79,1,0,0,response1disk,7,40,3,9,1,0,0,rectangle,3,9,1,0,0,0,1,0,0.00058,3,9,1,0,0,0,39,39,41,1,,,,,,,,,,,,,,,,,,,,,
,,,,,,,,,,,,,,,,,,,,,,,,,,,,,,,,,,,,,,,,,,,5edbb1b58c2917046a9151d4,5ff3a3880538db50cfc60c88,2021-01-04_23h24.04.923,Colour_Similarity_Experiment_v1,2020.1.2,Win32,60,5ff3a352adaa099f7659f8cc,,,,,,,,,,,,,,,,,,,,PF,,,,,,,,7,0.67271,,,,,,,,,,,,,,,,,,,,,,,,,,,,3,39,87.99996948,1,0,0,response1disk,8,41,2.000061035,1,1,0,0,rectangle,2.000061035,1,1,0,0,0,1,0,0.000655,2.000061035,1,1,0,0,0,40,40,3,1,,,,,,,,,,,,,,,,,,,,,
,,,,,,,,,,,,,,,,,,,,,,,,,,,,,,,,,,,,,,,,,,,5edbb1b58c2917046a9151d4,5ff3a3880538db50cfc60c88,2021-01-04_23h24.04.923,Colour_Similarity_Experiment_v1,2020.1.2,Win32,60,5ff3a352adaa099f7659f8cc,,,,,,,,,,,,,,,,,,,,FF,,,,,,,,7,0.82858,,,,,,,,,,,,,,,,,,,,,,,,,,,,3,30,89,1,0,0,response1disk,6,42,-5,12.99996948,1,0,0,rectangle,-5,12.99996948,1,0,0,0,4,0,0.00072,-5,12.99996948,1,0,0,0,41,41,95,1,,,,,,,,,,,,,,,,,,,,,
,,,,,,,,,,,,,,,,,,,,,,,,,,,,,,,,,,,,,,,,,,,5edbb1b58c2917046a9151d4,5ff3a3880538db50cfc60c88,2021-01-04_23h24.04.923,Colour_Similarity_Experiment_v1,2020.1.2,Win32,60,5ff3a352adaa099f7659f8cc,,,,,,,,,,,,,,,,,,,,FF,,,,,,,,7,0.55201,,,,,,,,,,,,,,,,,,,,,,,,,,,,9,31,75,1,0,0,response1disk,6,43,1,6,1,0,0,rectangle,1,6,1,0,0,0,6,0,0.00066,1,6,1,0,0,0,42,42,117,1,,,,,,,,,,,,,,,,,,,,,
,,,,,,,,,,,,,,,,,,,,,,,,,,,,,,,,,,,,,,,,,,,5edbb1b58c2917046a9151d4,5ff3a3880538db50cfc60c88,2021-01-04_23h24.04.923,Colour_Similarity_Experiment_v1,2020.1.2,Win32,60,5ff3a352adaa099f7659f8cc,,,,,,,,,,,,,,,,,,,,FF,,,,,,,,2,2.51727,,,,,,,,,,,,,,,,,,,,,,,,,,,,6,-74,-29,1,0,0,response5disk,5,44,-15,14,1,0,0,rectangle,-15,14,1,0,0,1,1,0,0.00056,-15,14,1,0,0,0,43,43,126,1,,,,,,,,,,,,,,,,,,,,,
,,,,,,,,,,,,,,,,,,,,,,,,,,,,,,,,,,,,,,,,,,,5edbb1b58c2917046a9151d4,5ff3a3880538db50cfc60c88,2021-01-04_23h24.04.923,Colour_Similarity_Experiment_v1,2020.1.2,Win32,60,5ff3a352adaa099f7659f8cc,,,,,,,,,,,,,,,,,,,,FF,,,,,,,,7,0.882625,,,,,,,,,,,,,,,,,,,,,,,,,,,,3,32.00006104,72,1,0,0,response1disk,2,45,5,11,1,0,0,rectangle,5,11,1,0,0,1,3,0,0.000565,5,11,1,0,0,0,44,44,93,1,,,,,,,,,,,,,,,,,,,,,
,,,,,,,,,,,,,,,,,,,,,,,,,,,,,,,,,,,,,,,,,,,5edbb1b58c2917046a9151d4,5ff3a3880538db50cfc60c88,2021-01-04_23h24.04.923,Colour_Similarity_Experiment_v1,2020.1.2,Win32,60,5ff3a352adaa099f7659f8cc,,,,,,,,,,,,,,,,,,,,PF,,,,,,,,4,2.330755,,,,,,,,,,,,,,,,,,,,,,,,,,,,5,29,-66,1,0,0,response3disk,4,46,15,16,1,0,0,rectangle,15,16,1,0,0,7,7,0,0.00062,15,16,1,0,0,0,45,45,54,1,,,,,,,,,,,,,,,,,,,,,
,,,,,,,,,,,,,,,,,,,,,,,,,,,,,,,,,,,,,,,,,,,5edbb1b58c2917046a9151d4,5ff3a3880538db50cfc60c88,2021-01-04_23h24.04.923,Colour_Similarity_Experiment_v1,2020.1.2,Win32,60,5ff3a352adaa099f7659f8cc,,,,,,,,,,,,,,,,,,,,FF,,,,,,,,7,0.99859,,,,,,,,,,,,,,,,,,,,,,,,,,,,7,44,97,1,0,0,response1disk,2,47,3,7,1,0,0,rectangle,3,7,1,0,0,7,6,0,0.000575,3,7,1,0,0,0,46,46,138,1,,,,,,,,,,,,,,,,,,,,,
,,,,,,,,,,,,,,,,,,,,,,,,,,,,,,,,,,,,,,,,,,,5edbb1b58c2917046a9151d4,5ff3a3880538db50cfc60c88,2021-01-04_23h24.04.923,Colour_Similarity_Experiment_v1,2020.1.2,Win32,60,5ff3a352adaa099f7659f8cc,,,,,,,,,,,,,,,,,,,,FF,,,,,,,,7,0.734655,,,,,,,,,,,,,,,,,,,,,,,,,,,,2,43,84,1,0,0,response1disk,7,48,-1,11,1,0,0,rectangle,-1,11,1,0,0,7,2,0,0.000635,-1,11,1,0,0,0,47,47,63,1,,,,,,,,,,,,,,,,,,,,,
,,,,,,,,,,,,,,,,,,,,,,,,,,,,,,,,,,,,,,,,,,,5edbb1b58c2917046a9151d4,5ff3a3880538db50cfc60c88,2021-01-04_23h24.04.923,Colour_Similarity_Experiment_v1,2020.1.2,Win32,60,5ff3a352adaa099f7659f8cc,,,,,,,,,,,,,,,,,,,,PF,,,,,,,,7,0.617295,,,,,,,,,,,,,,,,,,,,,,,,,,,,1,47.00006104,90,1,0,0,response1disk,9,49,4,17.99996948,1,0,0,rectangle,4,17.99996948,1,0,0,7,6,0,0.000575,4,17.99996948,1,0,0,0,48,48,15,1,,,,,,,,,,,,,,,,,,,,,
,,,,,,,,,,,,,,,,,,,,,,,,,,,,,,,,,,,,,,,,,,,5edbb1b58c2917046a9151d4,5ff3a3880538db50cfc60c88,2021-01-04_23h24.04.923,Colour_Similarity_Experiment_v1,2020.1.2,Win32,60,5ff3a352adaa099f7659f8cc,,,,,,,,,,,,,,,,,,,,PF,,,,,,,,7,0.7493,,,,,,,,,,,,,,,,,,,,,,,,,,,,8,34,80,1,0,0,response1disk,6,50,5,-2.000030518,1,0,0,rectangle,46,-82,1,0,0,4,4,1,1.149805,-5,15,1,0,0,0,49,49,161,1,response3disk_3,rectangle,,,,,,,,,,,,,,,,,,,
,,,,,,,,,,,,,,,,,,,,,,,,,,,,,,,,,,,,,,,,,,,5edbb1b58c2917046a9151d4,5ff3a3880538db50cfc60c88,2021-01-04_23h24.04.923,Colour_Similarity_Experiment_v1,2020.1.2,Win32,60,5ff3a352adaa099f7659f8cc,,,,,,,,,,,,,,,,,,,,PF,,,,,,,,7,0.898125,,,,,,,,,,,,,,,,,,,,,,,,,,,,1,34,79,1,0,0,response1disk,3,51,2.000061035,4,1,0,0,rectangle,2.000061035,4,1,0,0,4,6,0,0.00058,2.000061035,4,1,0,0,0,50,50,1,1,,,,,,,,,,,,,,,,,,,,,
,,,,,,,,,,,,,,,,,,,,,,,,,,,,,,,,,,,,,,,,,,,5edbb1b58c2917046a9151d4,5ff3a3880538db50cfc60c88,2021-01-04_23h24.04.923,Colour_Similarity_Experiment_v1,2020.1.2,Win32,60,5ff3a352adaa099f7659f8cc,,,,,,,,,,,,,,,,,,,,PF,,,,,,,,7,0.75803,,,,,,,,,,,,,,,,,,,,,,,,,,,,2,49,95,1,0,0,response1disk,7,52,-1,7.999969482,1,0,0,rectangle,-1,7.999969482,1,0,0,4,3,0,0.0006,-1,7.999969482,1,0,0,0,51,51,107,1,,,,,,,,,,,,,,,,,,,,,
,,,,,,,,,,,,,,,,,,,,,,,,,,,,,,,,,,,,,,,,,,,5edbb1b58c2917046a9151d4,5ff3a3880538db50cfc60c88,2021-01-04_23h24.04.923,Colour_Similarity_Experiment_v1,2020.1.2,Win32,60,5ff3a352adaa099f7659f8cc,,,,,,,,,,,,,,,,,,,,FF,,,,,,,,7,0.670855,,,,,,,,,,,,,,,,,,,,,,,,,,,,7,29,77.99996948,1,0,0,response1disk,4,53,-9,-6,1,0,0,rectangle,-9,-6,1,0,0,4,0,0,0.000945,-9,-6,1,0,0,0,52,52,158,1,,,,,,,,,,,,,,,,,,,,,
,,,,,,,,,,,,,,,,,,,,,,,,,,,,,,,,,,,,,,,,,,,5edbb1b58c2917046a9151d4,5ff3a3880538db50cfc60c88,2021-01-04_23h24.04.923,Colour_Similarity_Experiment_v1,2020.1.2,Win32,60,5ff3a352adaa099f7659f8cc,,,,,,,,,,,,,,,,,,,,PF,,,,,,,,0,1.777025,,,,,,,,,,,,,,,,,,,,,,,,,,,,3,-35,90,1,0,0,response7disk,3,54,2.000061035,10,1,0,0,rectangle,2.000061035,10,1,0,0,4,6,0,0.001185,2.000061035,10,1,0,0,0,53,53,4,1,,,,,,,,,,,,,,,,,,,,,
,,,,,,,,,,,,,,,,,,,,,,,,,,,,,,,,,,,,,,,,,,,5edbb1b58c2917046a9151d4,5ff3a3880538db50cfc60c88,2021-01-04_23h24.04.923,Colour_Similarity_Experiment_v1,2020.1.2,Win32,60,5ff3a352adaa099f7659f8cc,,,,,,,,,,,,,,,,,,,,PF,,,,,,,,7,0.86459,,,,,,,,,,,,,,,,,,,,,,,,,,,,7,29,80,1,0,0,response1disk,2,55,-5,-1,1,0,0,rectangle,-5,-1,1,0,0,4,7,0,0.00056,-5,-1,1,0,0,0,54,54,32,1,,,,,,,,,,,,,,,,,,,,,
,,,,,,,,,,,,,,,,,,,,,,,,,,,,,,,,,,,,,,,,,,,5edbb1b58c2917046a9151d4,5ff3a3880538db50cfc60c88,2021-01-04_23h24.04.923,Colour_Similarity_Experiment_v1,2020.1.2,Win32,60,5ff3a352adaa099f7659f8cc,,,,,,,,,,,,,,,,,,,,FF,,,,,,,,7,0.66054,,,,,,,,,,,,,,,,,,,,,,,,,,,,1,29,85,1,0,0,response1disk,6,56,0,4,1,0,0,rectangle,0,4,1,0,0,4,0,0,0.000575,0,4,1,0,0,0,55,55,58,1,,,,,,,,,,,,,,,,,,,,,
,,,,,,,,,,,,,,,,,,,,,,,,,,,,,,,,,,,,,,,,,,,5edbb1b58c2917046a9151d4,5ff3a3880538db50cfc60c88,2021-01-04_23h24.04.923,Colour_Similarity_Experiment_v1,2020.1.2,Win32,60,5ff3a352adaa099f7659f8cc,,,,,,,,,,,,,,,,,,,,FF,,,,,,,,7,0.655965,,,,,,,,,,,,,,,,,,,,,,,,,,,,3,42.00006104,92.99996948,1,0,0,response1disk,1,57,1,2.999969482,1,0,0,rectangle,1,2.999969482,1,0,0,4,6,0,0.00062,1,2.999969482,1,0,0,0,56,56,125,1,,,,,,,,,,,,,,,,,,,,,
,,,,,,,,,,,,,,,,,,,,,,,,,,,,,,,,,,,,,,,,,,,5edbb1b58c2917046a9151d4,5ff3a3880538db50cfc60c88,2021-01-04_23h24.04.923,Colour_Similarity_Experiment_v1,2020.1.2,Win32,60,5ff3a352adaa099f7659f8cc,,,,,,,,,,,,,,,,,,,,PF,,,,,,,,7,0.65775,,,,,,,,,,,,,,,,,,,,,,,,,,,,8,44,79,1,0,0,response1disk,3,58,-2,-3,1,0,0,rectangle,-2,-3,1,0,0,4,1,0,0.00057,-2,-3,1,0,0,0,57,57,71,1,,,,,,,,,,,,,,,,,,,,,
,,,,,,,,,,,,,,,,,,,,,,,,,,,,,,,,,,,,,,,,,,,5edbb1b58c2917046a9151d4,5ff3a3880538db50cfc60c88,2021-01-04_23h24.04.923,Colour_Similarity_Experiment_v1,2020.1.2,Win32,60,5ff3a352adaa099f7659f8cc,,,,,,,,,,,,,,,,,,,,FF,,,,,,,,0,0.826375,,,,,,,,,,,,,,,,,,,,,,,,,,,,8,-31,72.99996948,1,0,0,response7disk,8,59,-1,2,1,0,0,rectangle,-1,2,1,0,0,4,5,0,0.000565,-1,2,1,0,0,0,58,58,48,1,,,,,,,,,,,,,,,,,,,,,
,,,,,,,,,,,,,,,,,,,,,,,,,,,,,,,,,,,,,,,,,,,5edbb1b58c2917046a9151d4,5ff3a3880538db50cfc60c88,2021-01-04_23h24.04.923,Colour_Similarity_Experiment_v1,2020.1.2,Win32,60,5ff3a352adaa099f7659f8cc,,,,,,,,,,,,,,,,,,,,PF,,,,,,,,0,0.820805,,,,,,,,,,,,,,,,,,,,,,,,,,,,6,-40,89,1,0,0,response7disk,5,60,-2.999938965,12.99996948,1,0,0,rectangle,-2.999938965,12.99996948,1,0,0,4,6,0,0.00071,-2.999938965,12.99996948,1,0,0,0,59,59,59,1,,,,,,,,,,,,,,,,,,,,,
,,,,,,,,,,,,,,,,,,,,,,,,,,,,,,,,,,,,,,,,,,,5edbb1b58c2917046a9151d4,5ff3a3880538db50cfc60c88,2021-01-04_23h24.04.923,Colour_Similarity_Experiment_v1,2020.1.2,Win32,60,5ff3a352adaa099f7659f8cc,,,,,,,,,,,,,,,,,,,,FF,,,,,,,,7,0.900535,,,,,,,,,,,,,,,,,,,,,,,,,,,,2,54,94,1,0,0,response1disk,4,61,1,4,1,0,0,rectangle,1,4,1,0,0,4,0,0,0.000645,1,4,1,0,0,0,60,60,145,1,,,,,,,,,,,,,,,,,,,,,
,,,,,,,,,,,,,,,,,,,,,,,,,,,,,,,,,,,,,,,,,,,5edbb1b58c2917046a9151d4,5ff3a3880538db50cfc60c88,2021-01-04_23h24.04.923,Colour_Similarity_Experiment_v1,2020.1.2,Win32,60,5ff3a352adaa099f7659f8cc,,,,,,,,,,,,,,,,,,,,FF,,,,,,,,7,0.795025,,,,,,,,,,,,,,,,,,,,,,,,,,,,1,35,77.99996948,1,0,0,response1disk,7,62,-1,4,1,0,0,rectangle,-1,4,1,0,0,4,7,0,0.00058,-1,4,1,0,0,0,61,61,137,1,,,,,,,,,,,,,,,,,,,,,
,,,,,,,,,,,,,,,,,,,,,,,,,,,,,,,,,,,,,,,,,,,5edbb1b58c2917046a9151d4,5ff3a3880538db50cfc60c88,2021-01-04_23h24.04.923,Colour_Similarity_Experiment_v1,2020.1.2,Win32,60,5ff3a352adaa099f7659f8cc,,,,,,,,,,,,,,,,,,,,FF,,,,,,,,7,0.64461,,,,,,,,,,,,,,,,,,,,,,,,,,,,8,39,80,1,0,0,response1disk,3,63,7.000061035,5,1,0,0,rectangle,7.000061035,5,1,0,0,4,5,0,0.000685,7.000061035,5,1,0,0,0,62,62,154,1,,,,,,,,,,,,,,,,,,,,,
,,,,,,,,,,,,,,,,,,,,,,,,,,,,,,,,,,,,,,,,,,,5edbb1b58c2917046a9151d4,5ff3a3880538db50cfc60c88,2021-01-04_23h24.04.923,Colour_Similarity_Experiment_v1,2020.1.2,Win32,60,5ff3a352adaa099f7659f8cc,,,,,,,,,,,,,,,,,,,,FF,,,,,,,,7,1.034555,,,,,,,,,,,,,,,,,,,,,,,,,,,,7,35,71,1,0,0,response1disk,8,64,-4,2.999969482,1,0,0,rectangle,-41,-84,1,0,0,3,3,1,1.63254,1,-4,1,0,0,0,63,63,97,1,response5disk_3,rectangle,,,,,,,,,,,,,,,,,,,
,,,,,,,,,,,,,,,,,,,,,,,,,,,,,,,,,,,,,,,,,,,5edbb1b58c2917046a9151d4,5ff3a3880538db50cfc60c88,2021-01-04_23h24.04.923,Colour_Similarity_Experiment_v1,2020.1.2,Win32,60,5ff3a352adaa099f7659f8cc,,,,,,,,,,,,,,,,,,,,FF,,,,,,,,7,0.64602,,,,,,,,,,,,,,,,,,,,,,,,,,,,6,36,75,1,0,0,response1disk,2,65,-4,2.999969482,1,0,0,rectangle,-4,2.999969482,1,0,0,3,0,0,0.00062,-4,2.999969482,1,0,0,0,64,64,112,1,,,,,,,,,,,,,,,,,,,,,
,,,,,,,,,,,,,,,,,,,,,,,,,,,,,,,,,,,,,,,,,,,5edbb1b58c2917046a9151d4,5ff3a3880538db50cfc60c88,2021-01-04_23h24.04.923,Colour_Similarity_Experiment_v1,2020.1.2,Win32,60,5ff3a352adaa099f7659f8cc,,,,,,,,,,,,,,,,,,,,PF,,,,,,,,7,1.10109,,,,,,,,,,,,,,,,,,,,,,,,,,,,1,31,81,1,0,0,response1disk,2,66,0,10,1,0,0,rectangle,0,10,1,0,0,3,7,0,0.00055,0,10,1,0,0,0,65,65,24,1,,,,,,,,,,,,,,,,,,,,,
,,,,,,,,,,,,,,,,,,,,,,,,,,,,,,,,,,,,,,,,,,,5edbb1b58c2917046a9151d4,5ff3a3880538db50cfc60c88,2021-01-04_23h24.04.923,Colour_Similarity_Experiment_v1,2020.1.2,Win32,60,5ff3a352adaa099f7659f8cc,,,,,,,,,,,,,,,,,,,,PF,,,,,,,,6,1.405905,,,,,,,,,,,,,,,,,,,,,,,,,,,,6,81,37,1,0,0,response1disk,7,67,-9,-1,1,0,0,rectangle,-9,-1,1,0,0,3,6,0,0.00061,-9,-1,1,0,0,0,66,66,50,1,,,,,,,,,,,,,,,,,,,,,
,,,,,,,,,,,,,,,,,,,,,,,,,,,,,,,,,,,,,,,,,,,5edbb1b58c2917046a9151d4,5ff3a3880538db50cfc60c88,2021-01-04_23h24.04.923,Colour_Similarity_Experiment_v1,2020.1.2,Win32,60,5ff3a352adaa099f7659f8cc,,,,,,,,,,,,,,,,,,,,PF,,,,,,,,7,0.7875,,,,,,,,,,,,,,,,,,,,,,,,,,,,7,23,76,1,0,0,response1disk,4,68,1,1,1,0,0,rectangle,1,1,1,0,0,3,0,0,0.00127,1,1,1,0,0,0,67,67,43,1,,,,,,,,,,,,,,,,,,,,,
,,,,,,,,,,,,,,,,,,,,,,,,,,,,,,,,,,,,,,,,,,,5edbb1b58c2917046a9151d4,5ff3a3880538db50cfc60c88,2021-01-04_23h24.04.923,Colour_Similarity_Experiment_v1,2020.1.2,Win32,60,5ff3a352adaa099f7659f8cc,,,,,,,,,,,,,,,,,,,,PF,,,,,,,,6,2.356515,,,,,,,,,,,,,,,,,,,,,,,,,,,,2,96,32,1,0,0,response1disk,4,69,11,2,1,0,0,rectangle,11,2,1,0,0,3,5,0,0.000735,11,2,1,0,0,0,68,68,127,1,,,,,,,,,,,,,,,,,,,,,
,,,,,,,,,,,,,,,,,,,,,,,,,,,,,,,,,,,,,,,,,,,5edbb1b58c2917046a9151d4,5ff3a3880538db50cfc60c88,2021-01-04_23h24.04.923,Colour_Similarity_Experiment_v1,2020.1.2,Win32,60,5ff3a352adaa099f7659f8cc,,,,,,,,,,,,,,,,,,,,FF,,,,,,,,7,0.893585,,,,,,,,,,,,,,,,,,,,,,,,,,,,9,34,87,1,0,0,response1disk,2,70,3,14,1,0,0,rectangle,-71,-36,1,0,0,3,2,1,1.38227,-1,1,1,0,0,0,69,69,11,1,response5disk_3,rectangle,,,,,,,,,,,,,,,,,,,
,,,,,,,,,,,,,,,,,,,,,,,,,,,,,,,,,,,,,,,,,,,5edbb1b58c2917046a9151d4,5ff3a3880538db50cfc60c88,2021-01-04_23h24.04.923,Colour_Similarity_Experiment_v1,2020.1.2,Win32,60,5ff3a352adaa099f7659f8cc,,,,,,,,,,,,,,,,,,,,FF,,,,,,,,7,0.860345,,,,,,,,,,,,,,,,,,,,,,,,,,,,5,39,76,1,0,0,response1disk,2,71,1,1,1,0,0,rectangle,-39,76,1,0,0,0,0,1,1.55443,9,2.999969482,1,0,0,0,70,70,55,1,response7disk_3,rectangle,,,,,,,,,,,,,,,,,,,
,,,,,,,,,,,,,,,,,,,,,,,,,,,,,,,,,,,,,,,,,,,5edbb1b58c2917046a9151d4,5ff3a3880538db50cfc60c88,2021-01-04_23h24.04.923,Colour_Similarity_Experiment_v1,2020.1.2,Win32,60,5ff3a352adaa099f7659f8cc,,,,,,,,,,,,,,,,,,,,FF,,,,,,,,3,2.412145,,,,,,,,,,,,,,,,,,,,,,,,,,,,5,-27,-79,1,0,0,response5disk,6,72,3,-8,1,0,0,rectangle,3,-8,1,0,0,0,5,0,0.000635,3,-8,1,0,0,0,71,71,12,1,,,,,,,,,,,,,,,,,,,,,
,,,,,,,,,,,,,,,,,,,,,,,,,,,,,,,,,,,,,,,,,,,5edbb1b58c2917046a9151d4,5ff3a3880538db50cfc60c88,2021-01-04_23h24.04.923,Colour_Similarity_Experiment_v1,2020.1.2,Win32,60,5ff3a352adaa099f7659f8cc,,,,,,,,,,,,,,,,,,,,PF,,,,,,,,4,1.432665,,,,,,,,,,,,,,,,,,,,,,,,,,,,5,26,-68.00006104,1,0,0,response3disk,7,73,7.000061035,6,1,0,0,rectangle,7.000061035,6,1,0,0,0,1,0,0.000555,7.000061035,6,1,0,0,0,72,72,146,1,,,,,,,,,,,,,,,,,,,,,
,,,,,,,,,,,,,,,,,,,,,,,,,,,,,,,,,,,,,,,,,,,5edbb1b58c2917046a9151d4,5ff3a3880538db50cfc60c88,2021-01-04_23h24.04.923,Colour_Similarity_Experiment_v1,2020.1.2,Win32,60,5ff3a352adaa099f7659f8cc,,,,,,,,,,,,,,,,,,,,PF,,,,,,,,7,0.90107,,,,,,,,,,,,,,,,,,,,,,,,,,,,7,28,90,1,0,0,response1disk,9,74,11,5,1,0,0,rectangle,11,5,1,0,0,0,0,0,0.00062,11,5,1,0,0,0,73,73,10,1,,,,,,,,,,,,,,,,,,,,,
,,,,,,,,,,,,,,,,,,,,,,,,,,,,,,,,,,,,,,,,,,,5edbb1b58c2917046a9151d4,5ff3a3880538db50cfc60c88,2021-01-04_23h24.04.923,Colour_Similarity_Experiment_v1,2020.1.2,Win32,60,5ff3a352adaa099f7659f8cc,,,,,,,,,,,,,,,,,,,,FF,,,,,,,,7,0.63678,,,,,,,,,,,,,,,,,,,,,,,,,,,,1,26,70,1,0,0,response1disk,2,75,1,5,1,0,0,rectangle,1,5,1,0,0,0,7,0,0.00056,1,5,1,0,0,0,74,74,2,1,,,,,,,,,,,,,,,,,,,,,
,,,,,,,,,,,,,,,,,,,,,,,,,,,,,,,,,,,,,,,,,,,5edbb1b58c2917046a9151d4,5ff3a3880538db50cfc60c88,2021-01-04_23h24.04.923,Colour_Similarity_Experiment_v1,2020.1.2,Win32,60,5ff3a352adaa099f7659f8cc,,,,,,,,,,,,,,,,,,,,FF,,,,,,,,7,0.55469,,,,,,,,,,,,,,,,,,,,,,,,,,,,1,36,84,1,0,0,response1disk,8,76,-5,2.999969482,1,0,0,rectangle,-5,2.999969482,1,0,0,0,6,0,0.00077,-5,2.999969482,1,0,0,0,75,75,27,1,,,,,,,,,,,,,,,,,,,,,
,,,,,,,,,,,,,,,,,,,,,,,,,,,,,,,,,,,,,,,,,,,5edbb1b58c2917046a9151d4,5ff3a3880538db50cfc60c88,2021-01-04_23h24.04.923,Colour_Similarity_Experiment_v1,2020.1.2,Win32,60,5ff3a352adaa099f7659f8cc,,,,,,,,,,,,,,,,,,,,PF,,,,,,,,7,0.53648,,,,,,,,,,,,,,,,,,,,,,,,,,,,4,39,77,1,0,0,response1disk,1,77,0,7,1,0,0,rectangle,0,7,1,0,0,0,1,0,0.00056,0,7,1,0,0,0,76,76,115,1,,,,,,,,,,,,,,,,,,,,,
,,,,,,,,,,,,,,,,,,,,,,,,,,,,,,,,,,,,,,,,,,,5edbb1b58c2917046a9151d4,5ff3a3880538db50cfc60c88,2021-01-04_23h24.04.923,Colour_Similarity_Experiment_v1,2020.1.2,Win32,60,5ff3a352adaa099f7659f8cc,,,,,,,,,,,,,,,,,,,,FF,,,,,,,,7,0.63084,,,,,,,,,,,,,,,,,,,,,,,,,,,,9,43,80,1,0,0,response1disk,4,78,6,2,1,0,0,rectangle,6,2,1,0,0,0,3,0,0.000555,6,2,1,0,0,0,77,77,60,1,,,,,,,,,,,,,,,,,,,,,
,,,,,,,,,,,,,,,,,,,,,,,,,,,,,,,,,,,,,,,,,,,5edbb1b58c2917046a9151d4,5ff3a3880538db50cfc60c88,2021-01-04_23h24.04.923,Colour_Similarity_Experiment_v1,2020.1.2,Win32,60,5ff3a352adaa099f7659f8cc,,,,,,,,,,,,,,,,,,,,FF,,,,,,,,7,0.55329,,,,,,,,,,,,,,,,,,,,,,,,,,,,2,47.00006104,89,1,0,0,response1disk,6,79,-2,5,1,0,0,rectangle,-2,5,1,0,0,0,5,0,0.000575,-2,5,1,0,0,0,78,78,40,1,,,,,,,,,,,,,,,,,,,,,
,,,,,,,,,,,,,,,,,,,,,,,,,,,,,,,,,,,,,,,,,,,5edbb1b58c2917046a9151d4,5ff3a3880538db50cfc60c88,2021-01-04_23h24.04.923,Colour_Similarity_Experiment_v1,2020.1.2,Win32,60,5ff3a352adaa099f7659f8cc,,,,,,,,,,,,,,,,,,,,FF,,,,,,,,7,0.651625,,,,,,,,,,,,,,,,,,,,,,,,,,,,8,52.00006104,82.99996948,1,0,0,response1disk,7,80,0,1,1,0,0,rectangle,0,1,1,0,0,0,0,0,0.00063,0,1,1,0,0,0,79,79,86,1,,,,,,,,,,,,,,,,,,,,,
,,,,,,,,,,,,,,,,,,,,,,,,,,,,,,,,,,,,,,,,,,,5edbb1b58c2917046a9151d4,5ff3a3880538db50cfc60c88,2021-01-04_23h24.04.923,Colour_Similarity_Experiment_v1,2020.1.2,Win32,60,5ff3a352adaa099f7659f8cc,,,,,,,,,,,,,,,,,,,,FF,,,,,,,,7,0.6591,,,,,,,,,,,,,,,,,,,,,,,,,,,,7,32.00006104,77,1,0,0,response1disk,9,81,-5,-5,1,0,0,rectangle,-5,-5,1,0,0,0,1,0,0.00063,-5,-5,1,0,0,0,80,80,155,1,,,,,,,,,,,,,,,,,,,,,
,,,,,,,,,,,,,,,,,,,,,,,,,,,,,,,,,,,,,,,,,,,5edbb1b58c2917046a9151d4,5ff3a3880538db50cfc60c88,2021-01-04_23h24.04.923,Colour_Similarity_Experiment_v1,2020.1.2,Win32,60,5ff3a352adaa099f7659f8cc,,,,,,,,,,,,,,,,,,,,FF,,,,,,,,0,0.889635,,,,,,,,,,,,,,,,,,,,,,,,,,,,6,-30,84,1,0,0,response7disk,6,82,-2,11,1,0,0,rectangle,-2,11,1,0,0,0,6,0,0.00059,-2,11,1,0,0,0,81,81,91,1,,,,,,,,,,,,,,,,,,,,,
,,,,,,,,,,,,,,,,,,,,,,,,,,,,,,,,,,,,,,,,,,,5edbb1b58c2917046a9151d4,5ff3a3880538db50cfc60c88,2021-01-04_23h24.04.923,Colour_Similarity_Experiment_v1,2020.1.2,Win32,60,5ff3a352adaa099f7659f8cc,,,,,,,,,,,,,,,,,,,,FF,,,,,,,,7,0.634925,,,,,,,,,,,,,,,,,,,,,,,,,,,,3,42.00006104,74,1,0,0,response1disk,8,83,7.000061035,0,1,0,0,rectangle,7.000061035,0,1,0,0,0,4,0,0.001195,7.000061035,0,1,0,0,0,82,82,44,1,,,,,,,,,,,,,,,,,,,,,
,,,,,,,,,,,,,,,,,,,,,,,,,,,,,,,,,,,,,,,,,,,5edbb1b58c2917046a9151d4,5ff3a3880538db50cfc60c88,2021-01-04_23h24.04.923,Colour_Similarity_Experiment_v1,2020.1.2,Win32,60,5ff3a352adaa099f7659f8cc,,,,,,,,,,,,,,,,,,,,FF,,,,,,,,7,0.580635,,,,,,,,,,,,,,,,,,,,,,,,,,,,3,45,85,1,0,0,response1disk,7,84,13,2.999969482,1,0,0,rectangle,13,2.999969482,1,0,0,0,3,0,0.00055,13,2.999969482,1,0,0,0,83,83,118,1,,,,,,,,,,,,,,,,,,,,,
,,,,,,,,,,,,,,,,,,,,,,,,,,,,,,,,,,,,,,,,,,,5edbb1b58c2917046a9151d4,5ff3a3880538db50cfc60c88,2021-01-04_23h24.04.923,Colour_Similarity_Experiment_v1,2020.1.2,Win32,60,5ff3a352adaa099f7659f8cc,,,,,,,,,,,,,,,,,,,,PF,,,,,,,,7,0.52361,,,,,,,,,,,,,,,,,,,,,,,,,,,,2,45,76,1,0,0,response1disk,6,85,11,9,1,0,0,rectangle,11,9,1,0,0,0,7,0,0.000575,11,9,1,0,0,0,84,84,113,1,,,,,,,,,,,,,,,,,,,,,
,,,,,,,,,,,,,,,,,,,,,,,,,,,,,,,,,,,,,,,,,,,5edbb1b58c2917046a9151d4,5ff3a3880538db50cfc60c88,2021-01-04_23h24.04.923,Colour_Similarity_Experiment_v1,2020.1.2,Win32,60,5ff3a352adaa099f7659f8cc,,,,,,,,,,,,,,,,,,,,FF,,,,,,,,7,0.77065,,,,,,,,,,,,,,,,,,,,,,,,,,,,4,31,69,1,0,0,response1disk,6,86,2.000061035,7.999969482,1,0,0,rectangle,2.000061035,7.999969482,1,0,0,0,1,0,0.000575,2.000061035,7.999969482,1,0,0,0,85,85,122,1,,,,,,,,,,,,,,,,,,,,,
,,,,,,,,,,,,,,,,,,,,,,,,,,,,,,,,,,,,,,,,,,,5edbb1b58c2917046a9151d4,5ff3a3880538db50cfc60c88,2021-01-04_23h24.04.923,Colour_Similarity_Experiment_v1,2020.1.2,Win32,60,5ff3a352adaa099f7659f8cc,,,,,,,,,,,,,,,,,,,,PF,,,,,,,,7,0.645875,,,,,,,,,,,,,,,,,,,,,,,,,,,,8,37.00006104,85,1,0,0,response1disk,4,87,4,1,1,0,0,rectangle,4,1,1,0,0,0,3,0,0.00058,4,1,1,0,0,0,86,86,78,1,,,,,,,,,,,,,,,,,,,,,
,,,,,,,,,,,,,,,,,,,,,,,,,,,,,,,,,,,,,,,,,,,5edbb1b58c2917046a9151d4,5ff3a3880538db50cfc60c88,2021-01-04_23h24.04.923,Colour_Similarity_Experiment_v1,2020.1.2,Win32,60,5ff3a352adaa099f7659f8cc,,,,,,,,,,,,,,,,,,,,PF,,,,,,,,6,1.134795,,,,,,,,,,,,,,,,,,,,,,,,,,,,2,88,35,1,0,0,response1disk,3,88,-4,-10,1,0,0,rectangle,-4,-10,1,0,0,0,7,0,0.000665,-4,-10,1,0,0,0,87,87,69,1,,,,,,,,,,,,,,,,,,,,,
,,,,,,,,,,,,,,,,,,,,,,,,,,,,,,,,,,,,,,,,,,,5edbb1b58c2917046a9151d4,5ff3a3880538db50cfc60c88,2021-01-04_23h24.04.923,Colour_Similarity_Experiment_v1,2020.1.2,Win32,60,5ff3a352adaa099f7659f8cc,,,,,,,,,,,,,,,,,,,,FF,,,,,,,,7,0.79939,,,,,,,,,,,,,,,,,,,,,,,,,,,,4,29,85,1,0,0,response1disk,2,89,0,7.999969482,1,0,0,rectangle,0,7.999969482,1,0,0,0,5,0,0.000625,0,7.999969482,1,0,0,0,88,88,13,1,,,,,,,,,,,,,,,,,,,,,
,,,,,,,,,,,,,,,,,,,,,,,,,,,,,,,,,,,,,,,,,,,5edbb1b58c2917046a9151d4,5ff3a3880538db50cfc60c88,2021-01-04_23h24.04.923,Colour_Similarity_Experiment_v1,2020.1.2,Win32,60,5ff3a352adaa099f7659f8cc,,,,,,,,,,,,,,,,,,,,PF,,,,,,,,7,0.95673,,,,,,,,,,,,,,,,,,,,,,,,,,,,9,36,85,1,0,0,response1disk,5,90,3,12,1,0,0,rectangle,3,12,1,0,0,0,5,0,0.000595,3,12,1,0,0,0,89,89,134,1,,,,,,,,,,,,,,,,,,,,,
,,,,,,,,,,,,,,,,,,,,,,,,,,,,,,,,,,,,,,,,,,,5edbb1b58c2917046a9151d4,5ff3a3880538db50cfc60c88,2021-01-04_23h24.04.923,Colour_Similarity_Experiment_v1,2020.1.2,Win32,60,5ff3a352adaa099f7659f8cc,,,,,,,,,,,,,,,,,,,,FF,,,,,,,,0,0.88618,,,,,,,,,,,,,,,,,,,,,,,,,,,,9,-44,77.99996948,1,0,0,response7disk,9,91,-10,11,1,0,0,rectangle,-10,11,1,0,0,0,7,0,0.000655,-10,11,1,0,0,0,90,90,17,1,,,,,,,,,,,,,,,,,,,,,
,,,,,,,,,,,,,,,,,,,,,,,,,,,,,,,,,,,,,,,,,,,5edbb1b58c2917046a9151d4,5ff3a3880538db50cfc60c88,2021-01-04_23h24.04.923,Colour_Similarity_Experiment_v1,2020.1.2,Win32,60,5ff3a352adaa099f7659f8cc,,,,,,,,,,,,,,,,,,,,PF,,,,,,,,6,2.118415,,,,,,,,,,,,,,,,,,,,,,,,,,,,8,74,40,1,0,0,response1disk,9,92,10,1,1,0,0,rectangle,10,1,1,0,0,0,3,0,0.000615,10,1,1,0,0,0,91,91,42,1,,,,,,,,,,,,,,,,,,,,,
,,,,,,,,,,,,,,,,,,,,,,,,,,,,,,,,,,,,,,,,,,,5edbb1b58c2917046a9151d4,5ff3a3880538db50cfc60c88,2021-01-04_23h24.04.923,Colour_Similarity_Experiment_v1,2020.1.2,Win32,60,5ff3a352adaa099f7659f8cc,,,,,,,,,,,,,,,,,,,,FF,,,,,,,,7,0.73163,,,,,,,,,,,,,,,,,,,,,,,,,,,,1,42.00006104,70,1,0,0,response1disk,3,93,8,5,1,0,0,rectangle,8,5,1,0,0,0,0,0,0.000575,8,5,1,0,0,0,92,92,99,1,,,,,,,,,,,,,,,,,,,,,
,,,,,,,,,,,,,,,,,,,,,,,,,,,,,,,,,,,,,,,,,,,5edbb1b58c2917046a9151d4,5ff3a3880538db50cfc60c88,2021-01-04_23h24.04.923,Colour_Similarity_Experiment_v1,2020.1.2,Win32,60,5ff3a352adaa099f7659f8cc,,,,,,,,,,,,,,,,,,,,PF,,,,,,,,2,2.49921,,,,,,,,,,,,,,,,,,,,,,,,,,,,4,-71,-41,1,0,0,response5disk,4,94,-7,2.999969482,1,0,0,rectangle,-7,2.999969482,1,0,0,0,0,0,0.000655,-7,2.999969482,1,0,0,0,93,93,70,1,,,,,,,,,,,,,,,,,,,,,
,,,,,,,,,,,,,,,,,,,,,,,,,,,,,,,,,,,,,,,,,,,5edbb1b58c2917046a9151d4,5ff3a3880538db50cfc60c88,2021-01-04_23h24.04.923,Colour_Similarity_Experiment_v1,2020.1.2,Win32,60,5ff3a352adaa099f7659f8cc,,,,,,,,,,,,,,,,,,,,FF,,,,,,,,6,1.964185,,,,,,,,,,,,,,,,,,,,,,,,,,,,5,87,39,1,0,0,response1disk,7,95,9,-2.000030518,1,0,0,rectangle,9,-2.000030518,1,0,0,0,3,0,0.000585,9,-2.000030518,1,0,0,0,94,94,7,1,,,,,,,,,,,,,,,,,,,,,
,,,,,,,,,,,,,,,,,,,,,,,,,,,,,,,,,,,,,,,,,,,5edbb1b58c2917046a9151d4,5ff3a3880538db50cfc60c88,2021-01-04_23h24.04.923,Colour_Similarity_Experiment_v1,2020.1.2,Win32,60,5ff3a352adaa099f7659f8cc,,,,,,,,,,,,,,,,,,,,FF,,,,,,,,0,1.031305,,,,,,,,,,,,,,,,,,,,,,,,,,,,2,-56,75,1,0,0,response7disk,2,96,2.000061035,9,1,0,0,rectangle,2.000061035,9,1,0,0,0,7,0,0.000575,2.000061035,9,1,0,0,0,95,95,142,1,,,,,,,,,,,,,,,,,,,,,
,,,,,,,,,,,,,,,,,,,,,,,,,,,,,,,,,,,,,,,,,,,5edbb1b58c2917046a9151d4,5ff3a3880538db50cfc60c88,2021-01-04_23h24.04.923,Colour_Similarity_Experiment_v1,2020.1.2,Win32,60,5ff3a352adaa099f7659f8cc,,,,,,,,,,,,,,,,,,,,PF,,,,,,,,7,0.87776,,,,,,,,,,,,,,,,,,,,,,,,,,,,3,32.00006104,77.99996948,1,0,0,response1disk,5,97,6,-1,1,0,0,rectangle,6,-1,1,0,0,0,4,0,0.000575,6,-1,1,0,0,0,96,96,66,1,,,,,,,,,,,,,,,,,,,,,
,,,,,,,,,,,,,,,,,,,,,,,,,,,,,,,,,,,,,,,,,,,5edbb1b58c2917046a9151d4,5ff3a3880538db50cfc60c88,2021-01-04_23h24.04.923,Colour_Similarity_Experiment_v1,2020.1.2,Win32,60,5ff3a352adaa099f7659f8cc,,,,,,,,,,,,,,,,,,,,PF,,,,,,,,0,0.92674,,,,,,,,,,,,,,,,,,,,,,,,,,,,7,-35,67.99996948,1,0,0,response7disk,7,98,0,9,1,0,0,rectangle,0,9,1,0,0,0,7,0,0.000565,0,9,1,0,0,0,97,97,51,1,,,,,,,,,,,,,,,,,,,,,
,,,,,,,,,,,,,,,,,,,,,,,,,,,,,,,,,,,,,,,,,,,5edbb1b58c2917046a9151d4,5ff3a3880538db50cfc60c88,2021-01-04_23h24.04.923,Colour_Similarity_Experiment_v1,2020.1.2,Win32,60,5ff3a352adaa099f7659f8cc,,,,,,,,,,,,,,,,,,,,PF,,,,,,,,0,0.766735,,,,,,,,,,,,,,,,,,,,,,,,,,,,6,-30,77,1,0,0,response7disk,6,99,-1,14,1,0,0,rectangle,-1,14,1,0,0,0,5,0,0.000575,-1,14,1,0,0,0,98,98,0,1,,,,,,,,,,,,,,,,,,,,,
,,,,,,,,,,,,,,,,,,,,,,,,,,,,,,,,,,,,,,,,,,,5edbb1b58c2917046a9151d4,5ff3a3880538db50cfc60c88,2021-01-04_23h24.04.923,Colour_Similarity_Experiment_v1,2020.1.2,Win32,60,5ff3a352adaa099f7659f8cc,,,,,,,,,,,,,,,,,,,,PF,,,,,,,,7,0.666335,,,,,,,,,,,,,,,,,,,,,,,,,,,,1,28,71,1,0,0,response1disk,7,100,6,2.999969482,1,0,0,rectangle,6,2.999969482,1,0,0,0,1,0,0.000595,6,2.999969482,1,0,0,0,99,99,150,1,,,,,,,,,,,,,,,,,,,,,
,,,,,,,,,,,,,,,,,,,,,,,,,,,,,,,,,,,,,,,,,,,5edbb1b58c2917046a9151d4,5ff3a3880538db50cfc60c88,2021-01-04_23h24.04.923,Colour_Similarity_Experiment_v1,2020.1.2,Win32,60,5ff3a352adaa099f7659f8cc,,,,,,,,,,,,,,,,,,,,FF,,,,,,,,7,0.50182,,,,,,,,,,,,,,,,,,,,,,,,,,,,1,28,71,1,0,0,response1disk,5,101,-1,0,1,0,0,rectangle,-1,0,1,0,0,0,0,0,0.0013,-1,0,1,0,0,0,100,100,82,1,,,,,,,,,,,,,,,,,,,,,
,,,,,,,,,,,,,,,,,,,,,,,,,,,,,,,,,,,,,,,,,,,5edbb1b58c2917046a9151d4,5ff3a3880538db50cfc60c88,2021-01-04_23h24.04.923,Colour_Similarity_Experiment_v1,2020.1.2,Win32,60,5ff3a352adaa099f7659f8cc,,,,,,,,,,,,,,,,,,,,FF,,,,,,,,7,0.623405,,,,,,,,,,,,,,,,,,,,,,,,,,,,8,29,67,1,0,0,response1disk,9,102,0,7.999969482,1,0,0,rectangle,0,7.999969482,1,0,0,0,4,0,0.000585,0,7.999969482,1,0,0,0,101,101,105,1,,,,,,,,,,,,,,,,,,,,,
,,,,,,,,,,,,,,,,,,,,,,,,,,,,,,,,,,,,,,,,,,,5edbb1b58c2917046a9151d4,5ff3a3880538db50cfc60c88,2021-01-04_23h24.04.923,Colour_Similarity_Experiment_v1,2020.1.2,Win32,60,5ff3a352adaa099f7659f8cc,,,,,,,,,,,,,,,,,,,,FF,,,,,,,,7,0.7579,,,,,,,,,,,,,,,,,,,,,,,,,,,,5,34,70,1,0,0,response1disk,9,103,11,16,1,0,0,rectangle,11,16,1,0,0,0,0,0,0.000625,11,16,1,0,0,0,102,102,61,1,,,,,,,,,,,,,,,,,,,,,
,,,,,,,,,,,,,,,,,,,,,,,,,,,,,,,,,,,,,,,,,,,5edbb1b58c2917046a9151d4,5ff3a3880538db50cfc60c88,2021-01-04_23h24.04.923,Colour_Similarity_Experiment_v1,2020.1.2,Win32,60,5ff3a352adaa099f7659f8cc,,,,,,,,,,,,,,,,,,,,PF,,,,,,,,7,1.01376,,,,,,,,,,,,,,,,,,,,,,,,,,,,8,27.00006104,72,1,0,0,response1disk,2,104,0,10,1,0,0,rectangle,0,10,1,0,0,0,4,0,0.00063,0,10,1,0,0,0,103,103,83,1,,,,,,,,,,,,,,,,,,,,,
,,,,,,,,,,,,,,,,,,,,,,,,,,,,,,,,,,,,,,,,,,,5edbb1b58c2917046a9151d4,5ff3a3880538db50cfc60c88,2021-01-04_23h24.04.923,Colour_Similarity_Experiment_v1,2020.1.2,Win32,60,5ff3a352adaa099f7659f8cc,,,,,,,,,,,,,,,,,,,,PF,,,,,,,,7,1.050445,,,,,,,,,,,,,,,,,,,,,,,,,,,,8,28,66,1,0,0,response1disk,5,105,8,10,1,0,0,rectangle,8,10,1,0,0,0,4,0,0.00063,8,10,1,0,0,0,104,104,98,1,,,,,,,,,,,,,,,,,,,,,
,,,,,,,,,,,,,,,,,,,,,,,,,,,,,,,,,,,,,,,,,,,5edbb1b58c2917046a9151d4,5ff3a3880538db50cfc60c88,2021-01-04_23h24.04.923,Colour_Similarity_Experiment_v1,2020.1.2,Win32,60,5ff3a352adaa099f7659f8cc,,,,,,,,,,,,,,,,,,,,FF,,,,,,,,6,1.21541,,,,,,,,,,,,,,,,,,,,,,,,,,,,2,70,27,1,0,0,response1disk,3,106,1,-3,1,0,0,rectangle,47.00006104,67,1,0,0,7,7,1,1.399925,9,0,1,0,0,0,105,105,104,1,response1disk_3,rectangle,,,,,,,,,,,,,,,,,,,
,,,,,,,,,,,,,,,,,,,,,,,,,,,,,,,,,,,,,,,,,,,5edbb1b58c2917046a9151d4,5ff3a3880538db50cfc60c88,2021-01-04_23h24.04.923,Colour_Similarity_Experiment_v1,2020.1.2,Win32,60,5ff3a352adaa099f7659f8cc,,,,,,,,,,,,,,,,,,,,PF,,,,,,,,7,0.973885,,,,,,,,,,,,,,,,,,,,,,,,,,,,6,48,66,1,0,0,response1disk,2,107,9,-8,1,0,0,rectangle,9,-8,1,0,0,7,4,0,0.000585,9,-8,1,0,0,0,106,106,130,1,,,,,,,,,,,,,,,,,,,,,
,,,,,,,,,,,,,,,,,,,,,,,,,,,,,,,,,,,,,,,,,,,5edbb1b58c2917046a9151d4,5ff3a3880538db50cfc60c88,2021-01-04_23h24.04.923,Colour_Similarity_Experiment_v1,2020.1.2,Win32,60,5ff3a352adaa099f7659f8cc,,,,,,,,,,,,,,,,,,,,FF,,,,,,,,7,0.73561,,,,,,,,,,,,,,,,,,,,,,,,,,,,5,32.00006104,57,1,0,0,response1disk,8,108,11,-1,1,0,0,rectangle,11,-1,1,0,0,7,5,0,0.00061,11,-1,1,0,0,0,107,107,16,1,,,,,,,,,,,,,,,,,,,,,
,,,,,,,,,,,,,,,,,,,,,,,,,,,,,,,,,,,,,,,,,,,5edbb1b58c2917046a9151d4,5ff3a3880538db50cfc60c88,2021-01-04_23h24.04.923,Colour_Similarity_Experiment_v1,2020.1.2,Win32,60,5ff3a352adaa099f7659f8cc,,,,,,,,,,,,,,,,,,,,PF,,,,,,,,6,1.009215,,,,,,,,,,,,,,,,,,,,,,,,,,,,4,76,37,1,0,0,response1disk,5,109,4,-1,1,0,0,rectangle,4,-1,1,0,0,7,0,0,0.00062,4,-1,1,0,0,0,108,108,49,1,,,,,,,,,,,,,,,,,,,,,
,,,,,,,,,,,,,,,,,,,,,,,,,,,,,,,,,,,,,,,,,,,5edbb1b58c2917046a9151d4,5ff3a3880538db50cfc60c88,2021-01-04_23h24.04.923,Colour_Similarity_Experiment_v1,2020.1.2,Win32,60,5ff3a352adaa099f7659f8cc,,,,,,,,,,,,,,,,,,,,FF,,,,,,,,7,0.665775,,,,,,,,,,,,,,,,,,,,,,,,,,,,9,25,71,1,0,0,response1disk,3,110,0,9,1,0,0,rectangle,0,9,1,0,0,7,5,0,0.002185,0,9,1,0,0,0,109,109,141,1,,,,,,,,,,,,,,,,,,,,,
,,,,,,,,,,,,,,,,,,,,,,,,,,,,,,,,,,,,,,,,,,,5edbb1b58c2917046a9151d4,5ff3a3880538db50cfc60c88,2021-01-04_23h24.04.923,Colour_Similarity_Experiment_v1,2020.1.2,Win32,60,5ff3a352adaa099f7659f8cc,,,,,,,,,,,,,,,,,,,,FF,,,,,,,,7,0.60714,,,,,,,,,,,,,,,,,,,,,,,,,,,,6,36,76,1,0,0,response1disk,9,111,11,4,1,0,0,rectangle,-47,72.99996948,1,0,0,0,0,1,1.1041,-5,-8,1,0,0,0,110,110,160,1,response7disk_3,rectangle,,,,,,,,,,,,,,,,,,,
,,,,,,,,,,,,,,,,,,,,,,,,,,,,,,,,,,,,,,,,,,,5edbb1b58c2917046a9151d4,5ff3a3880538db50cfc60c88,2021-01-04_23h24.04.923,Colour_Similarity_Experiment_v1,2020.1.2,Win32,60,5ff3a352adaa099f7659f8cc,,,,,,,,,,,,,,,,,,,,FF,,,,,,,,0,0.79829,,,,,,,,,,,,,,,,,,,,,,,,,,,,4,-27,76,1,0,0,response7disk,4,112,8,4,1,0,0,rectangle,8,4,1,0,0,0,1,0,0.00058,8,4,1,0,0,0,111,111,84,1,,,,,,,,,,,,,,,,,,,,,
,,,,,,,,,,,,,,,,,,,,,,,,,,,,,,,,,,,,,,,,,,,5edbb1b58c2917046a9151d4,5ff3a3880538db50cfc60c88,2021-01-04_23h24.04.923,Colour_Similarity_Experiment_v1,2020.1.2,Win32,60,5ff3a352adaa099f7659f8cc,,,,,,,,,,,,,,,,,,,,PF,,,,,,,,7,0.736475,,,,,,,,,,,,,,,,,,,,,,,,,,,,4,46,84,1,0,0,response1disk,8,113,10,-1,1,0,0,rectangle,10,-1,1,0,0,0,1,0,0.00131,10,-1,1,0,0,0,112,112,124,1,,,,,,,,,,,,,,,,,,,,,
,,,,,,,,,,,,,,,,,,,,,,,,,,,,,,,,,,,,,,,,,,,5edbb1b58c2917046a9151d4,5ff3a3880538db50cfc60c88,2021-01-04_23h24.04.923,Colour_Similarity_Experiment_v1,2020.1.2,Win32,60,5ff3a352adaa099f7659f8cc,,,,,,,,,,,,,,,,,,,,FF,,,,,,,,0,0.86085,,,,,,,,,,,,,,,,,,,,,,,,,,,,3,-37.99993896,79,1,0,0,response7disk,3,114,5,6,1,0,0,rectangle,5,6,1,0,0,0,4,0,0.00088,5,6,1,0,0,0,113,113,68,1,,,,,,,,,,,,,,,,,,,,,
,,,,,,,,,,,,,,,,,,,,,,,,,,,,,,,,,,,,,,,,,,,5edbb1b58c2917046a9151d4,5ff3a3880538db50cfc60c88,2021-01-04_23h24.04.923,Colour_Similarity_Experiment_v1,2020.1.2,Win32,60,5ff3a352adaa099f7659f8cc,,,,,,,,,,,,,,,,,,,,PF,,,,,,,,0,0.738605,,,,,,,,,,,,,,,,,,,,,,,,,,,,4,-46,74,1,0,0,response7disk,6,115,-10,16,1,0,0,rectangle,-10,16,1,0,0,0,3,0,0.00064,-10,16,1,0,0,0,114,114,120,1,,,,,,,,,,,,,,,,,,,,,
,,,,,,,,,,,,,,,,,,,,,,,,,,,,,,,,,,,,,,,,,,,5edbb1b58c2917046a9151d4,5ff3a3880538db50cfc60c88,2021-01-04_23h24.04.923,Colour_Similarity_Experiment_v1,2020.1.2,Win32,60,5ff3a352adaa099f7659f8cc,,,,,,,,,,,,,,,,,,,,PF,,,,,,,,7,1.147805,,,,,,,,,,,,,,,,,,,,,,,,,,,,9,42.00006104,77.99996948,1,0,0,response1disk,1,116,13,7.999969482,1,0,0,rectangle,13,7.999969482,1,0,0,0,3,0,0.00063,13,7.999969482,1,0,0,0,115,115,74,1,,,,,,,,,,,,,,,,,,,,,
,,,,,,,,,,,,,,,,,,,,,,,,,,,,,,,,,,,,,,,,,,,5edbb1b58c2917046a9151d4,5ff3a3880538db50cfc60c88,2021-01-04_23h24.04.923,Colour_Similarity_Experiment_v1,2020.1.2,Win32,60,5ff3a352adaa099f7659f8cc,,,,,,,,,,,,,,,,,,,,PF,,,,,,,,7,0.54838,,,,,,,,,,,,,,,,,,,,,,,,,,,,1,35,70,1,0,0,response1disk,4,117,5,-1,1,0,0,rectangle,5,-1,1,0,0,0,1,0,0.000565,5,-1,1,0,0,0,116,116,139,1,,,,,,,,,,,,,,,,,,,,,
,,,,,,,,,,,,,,,,,,,,,,,,,,,,,,,,,,,,,,,,,,,5edbb1b58c2917046a9151d4,5ff3a3880538db50cfc60c88,2021-01-04_23h24.04.923,Colour_Similarity_Experiment_v1,2020.1.2,Win32,60,5ff3a352adaa099f7659f8cc,,,,,,,,,,,,,,,,,,,,FF,,,,,,,,7,0.524165,,,,,,,,,,,,,,,,,,,,,,,,,,,,3,28,52,1,0,0,response1disk,5,118,9,0,1,0,0,rectangle,9,0,1,0,0,0,0,0,0.00058,9,0,1,0,0,0,117,117,101,1,,,,,,,,,,,,,,,,,,,,,
,,,,,,,,,,,,,,,,,,,,,,,,,,,,,,,,,,,,,,,,,,,5edbb1b58c2917046a9151d4,5ff3a3880538db50cfc60c88,2021-01-04_23h24.04.923,Colour_Similarity_Experiment_v1,2020.1.2,Win32,60,5ff3a352adaa099f7659f8cc,,,,,,,,,,,,,,,,,,,,FF,,,,,,,,6,1.002085,,,,,,,,,,,,,,,,,,,,,,,,,,,,6,72,35,1,0,0,response1disk,7,119,13,-3,1,0,0,rectangle,13,-3,1,0,0,0,3,0,0.000565,13,-3,1,0,0,0,118,118,18,1,,,,,,,,,,,,,,,,,,,,,
,,,,,,,,,,,,,,,,,,,,,,,,,,,,,,,,,,,,,,,,,,,5edbb1b58c2917046a9151d4,5ff3a3880538db50cfc60c88,2021-01-04_23h24.04.923,Colour_Similarity_Experiment_v1,2020.1.2,Win32,60,5ff3a352adaa099f7659f8cc,,,,,,,,,,,,,,,,,,,,FF,,,,,,,,7,0.597845,,,,,,,,,,,,,,,,,,,,,,,,,,,,8,27.00006104,65,1,0,0,response1disk,4,120,11,11,1,0,0,rectangle,11,11,1,0,0,0,5,0,0.0006,11,11,1,0,0,0,119,119,88,1,,,,,,,,,,,,,,,,,,,,,
,,,,,,,,,,,,,,,,,,,,,,,,,,,,,,,,,,,,,,,,,,,5edbb1b58c2917046a9151d4,5ff3a3880538db50cfc60c88,2021-01-04_23h24.04.923,Colour_Similarity_Experiment_v1,2020.1.2,Win32,60,5ff3a352adaa099f7659f8cc,,,,,,,,,,,,,,,,,,,,FF,,,,,,,,0,0.660595,,,,,,,,,,,,,,,,,,,,,,,,,,,,5,-51,72.99996948,1,0,0,response7disk,5,121,-7.999938965,9,1,0,0,rectangle,-7.999938965,9,1,0,0,0,1,0,0.000555,-7.999938965,9,1,0,0,0,120,120,19,1,,,,,,,,,,,,,,,,,,,,,
,,,,,,,,,,,,,,,,,,,,,,,,,,,,,,,,,,,,,,,,,,,5edbb1b58c2917046a9151d4,5ff3a3880538db50cfc60c88,2021-01-04_23h24.04.923,Colour_Similarity_Experiment_v1,2020.1.2,Win32,60,5ff3a352adaa099f7659f8cc,,,,,,,,,,,,,,,,,,,,FF,,,,,,,,7,1.221585,,,,,,,,,,,,,,,,,,,,,,,,,,,,4,34,79,1,0,0,response1disk,9,122,7.000061035,15,1,0,0,rectangle,7.000061035,15,1,0,0,0,7,0,0.00057,7.000061035,15,1,0,0,0,121,121,90,1,,,,,,,,,,,,,,,,,,,,,
,,,,,,,,,,,,,,,,,,,,,,,,,,,,,,,,,,,,,,,,,,,5edbb1b58c2917046a9151d4,5ff3a3880538db50cfc60c88,2021-01-04_23h24.04.923,Colour_Similarity_Experiment_v1,2020.1.2,Win32,60,5ff3a352adaa099f7659f8cc,,,,,,,,,,,,,,,,,,,,PF,,,,,,,,7,0.54282,,,,,,,,,,,,,,,,,,,,,,,,,,,,7,36,66,1,0,0,response1disk,3,123,11,10,1,0,0,rectangle,11,10,1,0,0,0,7,0,0.00057,11,10,1,0,0,0,122,122,81,1,,,,,,,,,,,,,,,,,,,,,
,,,,,,,,,,,,,,,,,,,,,,,,,,,,,,,,,,,,,,,,,,,5edbb1b58c2917046a9151d4,5ff3a3880538db50cfc60c88,2021-01-04_23h24.04.923,Colour_Similarity_Experiment_v1,2020.1.2,Win32,60,5ff3a352adaa099f7659f8cc,,,,,,,,,,,,,,,,,,,,PF,,,,,,,,7,0.399125,,,,,,,,,,,,,,,,,,,,,,,,,,,,9,36,71,1,0,0,response1disk,3,124,4,4,1,0,0,rectangle,4,4,1,0,0,0,4,0,0.000585,4,4,1,0,0,0,123,123,119,1,,,,,,,,,,,,,,,,,,,,,
,,,,,,,,,,,,,,,,,,,,,,,,,,,,,,,,,,,,,,,,,,,5edbb1b58c2917046a9151d4,5ff3a3880538db50cfc60c88,2021-01-04_23h24.04.923,Colour_Similarity_Experiment_v1,2020.1.2,Win32,60,5ff3a352adaa099f7659f8cc,,,,,,,,,,,,,,,,,,,,FF,,,,,,,,7,0.61462,,,,,,,,,,,,,,,,,,,,,,,,,,,,2,22.00006104,54,1,0,0,response1disk,8,125,6,-3,1,0,0,rectangle,6,-3,1,0,0,0,5,0,0.00056,6,-3,1,0,0,0,124,124,62,1,,,,,,,,,,,,,,,,,,,,,
,,,,,,,,,,,,,,,,,,,,,,,,,,,,,,,,,,,,,,,,,,,5edbb1b58c2917046a9151d4,5ff3a3880538db50cfc60c88,2021-01-04_23h24.04.923,Colour_Similarity_Experiment_v1,2020.1.2,Win32,60,5ff3a352adaa099f7659f8cc,,,,,,,,,,,,,,,,,,,,PF,,,,,,,,7,1.778095,,,,,,,,,,,,,,,,,,,,,,,,,,,,4,21,54,1,0,0,response1disk,9,126,-5,7,1,0,0,rectangle,-5,7,1,0,0,0,6,0,0.0006,-5,7,1,0,0,0,125,125,75,1,,,,,,,,,,,,,,,,,,,,,
,,,,,,,,,,,,,,,,,,,,,,,,,,,,,,,,,,,,,,,,,,,5edbb1b58c2917046a9151d4,5ff3a3880538db50cfc60c88,2021-01-04_23h24.04.923,Colour_Similarity_Experiment_v1,2020.1.2,Win32,60,5ff3a352adaa099f7659f8cc,,,,,,,,,,,,,,,,,,,,PF,,,,,,,,0,0.746055,,,,,,,,,,,,,,,,,,,,,,,,,,,,5,-37,72.99996948,1,0,0,response7disk,5,127,-2.999938965,2.999969482,1,0,0,rectangle,-2.999938965,2.999969482,1,0,0,0,5,0,0.00057,-2.999938965,2.999969482,1,0,0,0,126,126,94,1,,,,,,,,,,,,,,,,,,,,,
,,,,,,,,,,,,,,,,,,,,,,,,,,,,,,,,,,,,,,,,,,,5edbb1b58c2917046a9151d4,5ff3a3880538db50cfc60c88,2021-01-04_23h24.04.923,Colour_Similarity_Experiment_v1,2020.1.2,Win32,60,5ff3a352adaa099f7659f8cc,,,,,,,,,,,,,,,,,,,,PF,,,,,,,,7,0.61936,,,,,,,,,,,,,,,,,,,,,,,,,,,,3,23,62,1,0,0,response1disk,6,128,2.000061035,0,1,0,0,rectangle,2.000061035,0,1,0,0,0,7,0,0.002095,2.000061035,0,1,0,0,0,127,127,47,1,,,,,,,,,,,,,,,,,,,,,
,,,,,,,,,,,,,,,,,,,,,,,,,,,,,,,,,,,,,,,,,,,5edbb1b58c2917046a9151d4,5ff3a3880538db50cfc60c88,2021-01-04_23h24.04.923,Colour_Similarity_Experiment_v1,2020.1.2,Win32,60,5ff3a352adaa099f7659f8cc,,,,,,,,,,,,,,,,,,,,FF,,,,,,,,7,0.52439,,,,,,,,,,,,,,,,,,,,,,,,,,,,4,28,62.99996948,1,0,0,response1disk,5,129,4,1,1,0,0,rectangle,4,1,1,0,0,0,0,0,0.00066,4,1,1,0,0,0,128,128,116,1,,,,,,,,,,,,,,,,,,,,,
,,,,,,,,,,,,,,,,,,,,,,,,,,,,,,,,,,,,,,,,,,,5edbb1b58c2917046a9151d4,5ff3a3880538db50cfc60c88,2021-01-04_23h24.04.923,Colour_Similarity_Experiment_v1,2020.1.2,Win32,60,5ff3a352adaa099f7659f8cc,,,,,,,,,,,,,,,,,,,,PF,,,,,,,,7,0.485025,,,,,,,,,,,,,,,,,,,,,,,,,,,,9,42.00006104,62,1,0,0,response1disk,6,130,10,1,1,0,0,rectangle,10,1,1,0,0,0,5,0,0.00062,10,1,1,0,0,0,129,129,148,1,,,,,,,,,,,,,,,,,,,,,
,,,,,,,,,,,,,,,,,,,,,,,,,,,,,,,,,,,,,,,,,,,5edbb1b58c2917046a9151d4,5ff3a3880538db50cfc60c88,2021-01-04_23h24.04.923,Colour_Similarity_Experiment_v1,2020.1.2,Win32,60,5ff3a352adaa099f7659f8cc,,,,,,,,,,,,,,,,,,,,PF,,,,,,,,7,0.5022,,,,,,,,,,,,,,,,,,,,,,,,,,,,1,36,59,1,0,0,response1disk,5,131,8,-4,1,0,0,rectangle,8,-4,1,0,0,0,2,0,0.00063,8,-4,1,0,0,0,130,130,28,1,,,,,,,,,,,,,,,,,,,,,
,,,,,,,,,,,,,,,,,,,,,,,,,,,,,,,,,,,,,,,,,,,5edbb1b58c2917046a9151d4,5ff3a3880538db50cfc60c88,2021-01-04_23h24.04.923,Colour_Similarity_Experiment_v1,2020.1.2,Win32,60,5ff3a352adaa099f7659f8cc,,,,,,,,,,,,,,,,,,,,FF,,,,,,,,7,0.848525,,,,,,,,,,,,,,,,,,,,,,,,,,,,1,26,54,1,0,0,response1disk,9,132,6,7,1,0,0,rectangle,6,7,1,0,0,0,3,0,0.00176,6,7,1,0,0,0,131,131,123,1,,,,,,,,,,,,,,,,,,,,,
,,,,,,,,,,,,,,,,,,,,,,,,,,,,,,,,,,,,,,,,,,,5edbb1b58c2917046a9151d4,5ff3a3880538db50cfc60c88,2021-01-04_23h24.04.923,Colour_Similarity_Experiment_v1,2020.1.2,Win32,60,5ff3a352adaa099f7659f8cc,,,,,,,,,,,,,,,,,,,,PF,,,,,,,,0,0.81836,,,,,,,,,,,,,,,,,,,,,,,,,,,,8,-39,62,1,0,0,response7disk,8,133,-7,5,1,0,0,rectangle,-7,5,1,0,0,0,7,0,0.000565,-7,5,1,0,0,0,132,132,153,1,,,,,,,,,,,,,,,,,,,,,
,,,,,,,,,,,,,,,,,,,,,,,,,,,,,,,,,,,,,,,,,,,5edbb1b58c2917046a9151d4,5ff3a3880538db50cfc60c88,2021-01-04_23h24.04.923,Colour_Similarity_Experiment_v1,2020.1.2,Win32,60,5ff3a352adaa099f7659f8cc,,,,,,,,,,,,,,,,,,,,FF,,,,,,,,7,1.80777,,,,,,,,,,,,,,,,,,,,,,,,,,,,7,39,62.99996948,1,0,0,response1disk,5,134,11,2,1,0,0,rectangle,11,2,1,0,0,0,7,0,0.000545,11,2,1,0,0,0,133,133,156,1,,,,,,,,,,,,,,,,,,,,,
,,,,,,,,,,,,,,,,,,,,,,,,,,,,,,,,,,,,,,,,,,,5edbb1b58c2917046a9151d4,5ff3a3880538db50cfc60c88,2021-01-04_23h24.04.923,Colour_Similarity_Experiment_v1,2020.1.2,Win32,60,5ff3a352adaa099f7659f8cc,,,,,,,,,,,,,,,,,,,,PF,,,,,,,,7,1.080205,,,,,,,,,,,,,,,,,,,,,,,,,,,,9,25,52,1,0,0,response1disk,8,135,16,2.999969482,1,0,0,rectangle,16,2.999969482,1,0,0,0,2,0,0.00064,16,2.999969482,1,0,0,0,134,134,67,1,,,,,,,,,,,,,,,,,,,,,
,,,,,,,,,,,,,,,,,,,,,,,,,,,,,,,,,,,,,,,,,,,5edbb1b58c2917046a9151d4,5ff3a3880538db50cfc60c88,2021-01-04_23h24.04.923,Colour_Similarity_Experiment_v1,2020.1.2,Win32,60,5ff3a352adaa099f7659f8cc,,,,,,,,,,,,,,,,,,,,PF,,,,,,,,7,0.59685,,,,,,,,,,,,,,,,,,,,,,,,,,,,4,27.00006104,54,1,0,0,response1disk,2,136,20,5,1,0,0,rectangle,20,5,1,0,0,0,0,0,0.00061,20,5,1,0,0,0,135,135,108,1,,,,,,,,,,,,,,,,,,,,,
,,,,,,,,,,,,,,,,,,,,,,,,,,,,,,,,,,,,,,,,,,,5edbb1b58c2917046a9151d4,5ff3a3880538db50cfc60c88,2021-01-04_23h24.04.923,Colour_Similarity_Experiment_v1,2020.1.2,Win32,60,5ff3a352adaa099f7659f8cc,,,,,,,,,,,,,,,,,,,,FF,,,,,,,,7,0.51111,,,,,,,,,,,,,,,,,,,,,,,,,,,,4,25,52.99996948,1,0,0,response1disk,7,137,15,1,1,0,0,rectangle,15,1,1,0,0,0,2,0,0.00122,15,1,1,0,0,0,136,136,87,1,,,,,,,,,,,,,,,,,,,,,
,,,,,,,,,,,,,,,,,,,,,,,,,,,,,,,,,,,,,,,,,,,5edbb1b58c2917046a9151d4,5ff3a3880538db50cfc60c88,2021-01-04_23h24.04.923,Colour_Similarity_Experiment_v1,2020.1.2,Win32,60,5ff3a352adaa099f7659f8cc,,,,,,,,,,,,,,,,,,,,PF,,,,,,,,7,0.80111,,,,,,,,,,,,,,,,,,,,,,,,,,,,3,24,47,1,0,0,response1disk,2,138,15,5,1,0,0,rectangle,69,-41,1,0,0,5,5,1,1.20067,18,-2.000030518,1,0,0,0,137,137,36,1,response3disk_3,rectangle,,,,,,,,,,,,,,,,,,,
,,,,,,,,,,,,,,,,,,,,,,,,,,,,,,,,,,,,,,,,,,,5edbb1b58c2917046a9151d4,5ff3a3880538db50cfc60c88,2021-01-04_23h24.04.923,Colour_Similarity_Experiment_v1,2020.1.2,Win32,60,5ff3a352adaa099f7659f8cc,,,,,,,,,,,,,,,,,,,,PF,,,,,,,,7,0.61724,,,,,,,,,,,,,,,,,,,,,,,,,,,,3,23,55,1,0,0,response1disk,9,139,11,0,1,0,0,rectangle,11,0,1,0,0,5,4,0,0.002485,11,0,1,0,0,0,138,138,79,1,,,,,,,,,,,,,,,,,,,,,
,,,,,,,,,,,,,,,,,,,,,,,,,,,,,,,,,,,,,,,,,,,5edbb1b58c2917046a9151d4,5ff3a3880538db50cfc60c88,2021-01-04_23h24.04.923,Colour_Similarity_Experiment_v1,2020.1.2,Win32,60,5ff3a352adaa099f7659f8cc,,,,,,,,,,,,,,,,,,,,PF,,,,,,,,7,0.41713,,,,,,,,,,,,,,,,,,,,,,,,,,,,2,30,60,1,0,0,response1disk,9,140,5,6,1,0,0,rectangle,5,6,1,0,0,5,4,0,0.000875,5,6,1,0,0,0,139,139,39,1,,,,,,,,,,,,,,,,,,,,,
,,,,,,,,,,,,,,,,,,,,,,,,,,,,,,,,,,,,,,,,,,,5edbb1b58c2917046a9151d4,5ff3a3880538db50cfc60c88,2021-01-04_23h24.04.923,Colour_Similarity_Experiment_v1,2020.1.2,Win32,60,5ff3a352adaa099f7659f8cc,,,,,,,,,,,,,,,,,,,,FF,,,,,,,,7,0.398355,,,,,,,,,,,,,,,,,,,,,,,,,,,,9,21,57,1,0,0,response1disk,7,141,5,10,1,0,0,rectangle,5,10,1,0,0,5,7,0,0.000995,5,10,1,0,0,0,140,140,100,1,,,,,,,,,,,,,,,,,,,,,
,,,,,,,,,,,,,,,,,,,,,,,,,,,,,,,,,,,,,,,,,,,5edbb1b58c2917046a9151d4,5ff3a3880538db50cfc60c88,2021-01-04_23h24.04.923,Colour_Similarity_Experiment_v1,2020.1.2,Win32,60,5ff3a352adaa099f7659f8cc,,,,,,,,,,,,,,,,,,,,PF,,,,,,,,7,0.618125,,,,,,,,,,,,,,,,,,,,,,,,,,,,1,27.00006104,67,1,0,0,response1disk,8,142,18,7,1,0,0,rectangle,18,7,1,0,0,5,5,0,0.002205,18,7,1,0,0,0,141,141,65,1,,,,,,,,,,,,,,,,,,,,,
,,,,,,,,,,,,,,,,,,,,,,,,,,,,,,,,,,,,,,,,,,,5edbb1b58c2917046a9151d4,5ff3a3880538db50cfc60c88,2021-01-04_23h24.04.923,Colour_Similarity_Experiment_v1,2020.1.2,Win32,60,5ff3a352adaa099f7659f8cc,,,,,,,,,,,,,,,,,,,,PF,,,,,,,,7,0.515895,,,,,,,,,,,,,,,,,,,,,,,,,,,,7,36,62,1,0,0,response1disk,1,143,15,10,1,0,0,rectangle,15,10,1,0,0,5,3,0,0.001005,15,10,1,0,0,0,142,142,53,1,,,,,,,,,,,,,,,,,,,,,
,,,,,,,,,,,,,,,,,,,,,,,,,,,,,,,,,,,,,,,,,,,5edbb1b58c2917046a9151d4,5ff3a3880538db50cfc60c88,2021-01-04_23h24.04.923,Colour_Similarity_Experiment_v1,2020.1.2,Win32,60,5ff3a352adaa099f7659f8cc,,,,,,,,,,,,,,,,,,,,FF,,,,,,,,7,0.79997,,,,,,,,,,,,,,,,,,,,,,,,,,,,4,30,47.99996948,1,0,0,response1disk,3,144,5,-1,1,0,0,rectangle,5,-1,1,0,0,5,6,0,0.000925,5,-1,1,0,0,0,143,143,77,1,,,,,,,,,,,,,,,,,,,,,
,,,,,,,,,,,,,,,,,,,,,,,,,,,,,,,,,,,,,,,,,,,5edbb1b58c2917046a9151d4,5ff3a3880538db50cfc60c88,2021-01-04_23h24.04.923,Colour_Similarity_Experiment_v1,2020.1.2,Win32,60,5ff3a352adaa099f7659f8cc,,,,,,,,,,,,,,,,,,,,PF,,,,,,,,6,1.43383,,,,,,,,,,,,,,,,,,,,,,,,,,,,4,59,35,1,0,0,response1disk,3,145,15,2.999969482,1,0,0,rectangle,15,2.999969482,1,0,0,5,2,0,0.000895,15,2.999969482,1,0,0,0,144,144,89,1,,,,,,,,,,,,,,,,,,,,,
,,,,,,,,,,,,,,,,,,,,,,,,,,,,,,,,,,,,,,,,,,,5edbb1b58c2917046a9151d4,5ff3a3880538db50cfc60c88,2021-01-04_23h24.04.923,Colour_Similarity_Experiment_v1,2020.1.2,Win32,60,5ff3a352adaa099f7659f8cc,,,,,,,,,,,,,,,,,,,,PF,,,,,,,,7,1.000065,,,,,,,,,,,,,,,,,,,,,,,,,,,,5,29,42.99996948,1,0,0,response1disk,6,146,22.00006104,10,1,0,0,rectangle,22.00006104,10,1,0,0,5,6,0,0.002825,22.00006104,10,1,0,0,0,145,145,103,1,,,,,,,,,,,,,,,,,,,,,
,,,,,,,,,,,,,,,,,,,,,,,,,,,,,,,,,,,,,,,,,,,5edbb1b58c2917046a9151d4,5ff3a3880538db50cfc60c88,2021-01-04_23h24.04.923,Colour_Similarity_Experiment_v1,2020.1.2,Win32,60,5ff3a352adaa099f7659f8cc,,,,,,,,,,,,,,,,,,,,PF,,,,,,,,0,0.66412,,,,,,,,,,,,,,,,,,,,,,,,,,,,2,-39,62,1,0,0,response7disk,2,147,-9,10,1,0,0,rectangle,-9,10,1,0,0,5,5,0,0.001005,-9,10,1,0,0,0,146,146,14,1,,,,,,,,,,,,,,,,,,,,,
,,,,,,,,,,,,,,,,,,,,,,,,,,,,,,,,,,,,,,,,,,,5edbb1b58c2917046a9151d4,5ff3a3880538db50cfc60c88,2021-01-04_23h24.04.923,Colour_Similarity_Experiment_v1,2020.1.2,Win32,60,5ff3a352adaa099f7659f8cc,,,,,,,,,,,,,,,,,,,,FF,,,,,,,,7,0.78201,,,,,,,,,,,,,,,,,,,,,,,,,,,,5,27.00006104,62.99996948,1,0,0,response1disk,4,148,10,16,1,0,0,rectangle,10,16,1,0,0,5,2,0,0.001005,10,16,1,0,0,0,147,147,8,1,,,,,,,,,,,,,,,,,,,,,
,,,,,,,,,,,,,,,,,,,,,,,,,,,,,,,,,,,,,,,,,,,5edbb1b58c2917046a9151d4,5ff3a3880538db50cfc60c88,2021-01-04_23h24.04.923,Colour_Similarity_Experiment_v1,2020.1.2,Win32,60,5ff3a352adaa099f7659f8cc,,,,,,,,,,,,,,,,,,,,FF,,,,,,,,7,0.417725,,,,,,,,,,,,,,,,,,,,,,,,,,,,2,27.00006104,57.99996948,1,0,0,response1disk,5,149,7.000061035,7,1,0,0,rectangle,7.000061035,7,1,0,0,5,7,0,0.00202,7.000061035,7,1,0,0,0,148,148,80,1,,,,,,,,,,,,,,,,,,,,,
,,,,,,,,,,,,,,,,,,,,,,,,,,,,,,,,,,,,,,,,,,,5edbb1b58c2917046a9151d4,5ff3a3880538db50cfc60c88,2021-01-04_23h24.04.923,Colour_Similarity_Experiment_v1,2020.1.2,Win32,60,5ff3a352adaa099f7659f8cc,,,,,,,,,,,,,,,,,,,,FF,,,,,,,,7,0.416435,,,,,,,,,,,,,,,,,,,,,,,,,,,,8,28,61,1,0,0,response1disk,5,150,3,-3,1,0,0,rectangle,3,-3,1,0,0,5,3,0,0.00114,3,-3,1,0,0,0,149,149,152,1,,,,,,,,,,,,,,,,,,,,,
,,,,,,,,,,,,,,,,,,,,,,,,,,,,,,,,,,,,,,,,,,,5edbb1b58c2917046a9151d4,5ff3a3880538db50cfc60c88,2021-01-04_23h24.04.923,Colour_Similarity_Experiment_v1,2020.1.2,Win32,60,5ff3a352adaa099f7659f8cc,,,,,,,,,,,,,,,,,,,,PF,,,,,,,,0,0.73328,,,,,,,,,,,,,,,,,,,,,,,,,,,,9,-15,62,1,0,0,response7disk,9,151,-2,14,1,0,0,rectangle,-2,14,1,0,0,5,3,0,0.00092,-2,14,1,0,0,0,150,150,106,1,,,,,,,,,,,,,,,,,,,,,
,,,,,,,,,,,,,,,,,,,,,,,,,,,,,,,,,,,,,,,,,,,5edbb1b58c2917046a9151d4,5ff3a3880538db50cfc60c88,2021-01-04_23h24.04.923,Colour_Similarity_Experiment_v1,2020.1.2,Win32,60,5ff3a352adaa099f7659f8cc,,,,,,,,,,,,,,,,,,,,PF,,,,,,,,7,0.6666,,,,,,,,,,,,,,,,,,,,,,,,,,,,3,37.00006104,66,1,0,0,response1disk,4,152,7.000061035,7,1,0,0,rectangle,7.000061035,7,1,0,0,5,7,0,0.000955,7.000061035,7,1,0,0,0,151,151,30,1,,,,,,,,,,,,,,,,,,,,,
,,,,,,,,,,,,,,,,,,,,,,,,,,,,,,,,,,,,,,,,,,,5edbb1b58c2917046a9151d4,5ff3a3880538db50cfc60c88,2021-01-04_23h24.04.923,Colour_Similarity_Experiment_v1,2020.1.2,Win32,60,5ff3a352adaa099f7659f8cc,,,,,,,,,,,,,,,,,,,,FF,,,,,,,,7,0.41674,,,,,,,,,,,,,,,,,,,,,,,,,,,,6,29,59,1,0,0,response1disk,3,153,10,11,1,0,0,rectangle,10,11,1,0,0,5,3,0,0.001045,10,11,1,0,0,0,152,152,21,1,,,,,,,,,,,,,,,,,,,,,
,,,,,,,,,,,,,,,,,,,,,,,,,,,,,,,,,,,,,,,,,,,5edbb1b58c2917046a9151d4,5ff3a3880538db50cfc60c88,2021-01-04_23h24.04.923,Colour_Similarity_Experiment_v1,2020.1.2,Win32,60,5ff3a352adaa099f7659f8cc,,,,,,,,,,,,,,,,,,,,PF,,,,,,,,7,0.91809,,,,,,,,,,,,,,,,,,,,,,,,,,,,2,27.00006104,51,1,0,0,response1disk,5,154,13,7.999969482,1,0,0,rectangle,13,7.999969482,1,0,0,5,2,0,0.001935,13,7.999969482,1,0,0,0,153,153,147,1,,,,,,,,,,,,,,,,,,,,,
,,,,,,,,,,,,,,,,,,,,,,,,,,,,,,,,,,,,,,,,,,,5edbb1b58c2917046a9151d4,5ff3a3880538db50cfc60c88,2021-01-04_23h24.04.923,Colour_Similarity_Experiment_v1,2020.1.2,Win32,60,5ff3a352adaa099f7659f8cc,,,,,,,,,,,,,,,,,,,,FF,,,,,,,,7,0.4499,,,,,,,,,,,,,,,,,,,,,,,,,,,,7,28,51,1,0,0,response1disk,6,155,19,9,1,0,0,rectangle,19,9,1,0,0,5,6,0,0.00254,19,9,1,0,0,0,154,154,31,1,,,,,,,,,,,,,,,,,,,,,
,,,,,,,,,,,,,,,,,,,,,,,,,,,,,,,,,,,,,,,,,,,5edbb1b58c2917046a9151d4,5ff3a3880538db50cfc60c88,2021-01-04_23h24.04.923,Colour_Similarity_Experiment_v1,2020.1.2,Win32,60,5ff3a352adaa099f7659f8cc,,,,,,,,,,,,,,,,,,,,FF,,,,,,,,7,0.431855,,,,,,,,,,,,,,,,,,,,,,,,,,,,4,30,54,1,0,0,response1disk,8,156,15,4,1,0,0,rectangle,15,4,1,0,0,5,0,0,0.000995,15,4,1,0,0,0,155,155,35,1,,,,,,,,,,,,,,,,,,,,,
,,,,,,,,,,,,,,,,,,,,,,,,,,,,,,,,,,,,,,,,,,,5edbb1b58c2917046a9151d4,5ff3a3880538db50cfc60c88,2021-01-04_23h24.04.923,Colour_Similarity_Experiment_v1,2020.1.2,Win32,60,5ff3a352adaa099f7659f8cc,,,,,,,,,,,,,,,,,,,,PF,,,,,,,,7,1.18395,,,,,,,,,,,,,,,,,,,,,,,,,,,,3,29,57,1,0,0,response1disk,1,157,8,0,1,0,0,rectangle,8,0,1,0,0,5,0,0,0.000945,8,0,1,0,0,0,156,156,96,1,,,,,,,,,,,,,,,,,,,,,
,,,,,,,,,,,,,,,,,,,,,,,,,,,,,,,,,,,,,,,,,,,5edbb1b58c2917046a9151d4,5ff3a3880538db50cfc60c88,2021-01-04_23h24.04.923,Colour_Similarity_Experiment_v1,2020.1.2,Win32,60,5ff3a352adaa099f7659f8cc,,,,,,,,,,,,,,,,,,,,FF,,,,,,,,7,0.40125,,,,,,,,,,,,,,,,,,,,,,,,,,,,9,27.00006104,49,1,0,0,response1disk,1,158,8,5,1,0,0,rectangle,8,5,1,0,0,5,1,0,0.000945,8,5,1,0,0,0,157,157,111,1,,,,,,,,,,,,,,,,,,,,,
,,,,,,,,,,,,,,,,,,,,,,,,,,,,,,,,,,,,,,,,,,,5edbb1b58c2917046a9151d4,5ff3a3880538db50cfc60c88,2021-01-04_23h24.04.923,Colour_Similarity_Experiment_v1,2020.1.2,Win32,60,5ff3a352adaa099f7659f8cc,,,,,,,,,,,,,,,,,,,,FF,,,,,,,,7,0.36651,,,,,,,,,,,,,,,,,,,,,,,,,,,,8,27.00006104,61,1,0,0,response1disk,6,159,8,2,1,0,0,rectangle,8,2,1,0,0,5,4,0,0.002235,8,2,1,0,0,0,158,158,37,1,,,,,,,,,,,,,,,,,,,,,
,,,,,,,,,,,,,,,,,,,,,,,,,,,,,,,,,,,,,,,,,,,5edbb1b58c2917046a9151d4,5ff3a3880538db50cfc60c88,2021-01-04_23h24.04.923,Colour_Similarity_Experiment_v1,2020.1.2,Win32,60,5ff3a352adaa099f7659f8cc,,,,,,,,,,,,,,,,,,,,PF,,,,,,,,7,0.49943,,,,,,,,,,,,,,,,,,,,,,,,,,,,8,27.00006104,51,1,0,0,response1disk,7,160,13,-3,1,0,0,rectangle,13,-3,1,0,0,5,6,0,0.002545,13,-3,1,0,0,0,159,159,23,1,,,,,,,,,,,,,,,,,,,,,
,,,,,,,,,,,,,,,,,,,,,,,,,,,,,,,,,,,,,,,,,,,5edbb1b58c2917046a9151d4,5ff3a3880538db50cfc60c88,2021-01-04_23h24.04.923,Colour_Similarity_Experiment_v1,2020.1.2,Win32,60,5ff3a352adaa099f7659f8cc,,,,,,,,,,,,,,,,,,,,PF,,,,,,,,7,0.633245,,,,,,,,,,,,,,,,,,,,,,,,,,,,2,24,51,1,0,0,response1disk,8,161,12.00006104,-2.000030518,1,0,0,rectangle,12.00006104,-2.000030518,1,0,0,5,2,0,0.00109,12.00006104,-2.000030518,1,0,0,0,160,160,52,1,,,,,,,,,,,,,,,,,,,,,
,,,,,,,,,,,,,,,,,,,,,,,,,,,,,,,,,,,,,,,,,,,5edbb1b58c2917046a9151d4,5ff3a3880538db50cfc60c88,2021-01-04_23h24.04.923,Colour_Similarity_Experiment_v1,2020.1.2,Win32,60,5ff3a352adaa099f7659f8cc,,,,,,,,,,,,,,,,,,,,FF,,,,,,,,7,0.56808,,,,,,,,,,,,,,,,,,,,,,,,,,,,2,28,49,1,0,0,response1disk,9,162,10,2,1,0,0,rectangle,10,2,1,0,0,5,5,0,0.001305,10,2,1,0,0,0,161,161,72,1,,,,,,,,,,,,,,,,,,,,,
,,,,,,,,,,,,,,,,,,,,,,,,,,,,,,,,,,,,,,,,,,,5edbb1b58c2917046a9151d4,5ff3a3880538db50cfc60c88,2021-01-04_23h24.04.923,Colour_Similarity_Experiment_v1,2020.1.2,Win32,60,5ff3a352adaa099f7659f8cc,,,,,,,,,,,,,,,,,,,,,,,,,,,,,,,,,,,,,,,,,,,,,,,,,,,,,,,,,,,,,,,,,,,,,,,,,,,,,,,,,,,,,,,,,,,,,0,0,0,0,1,,,,,,,,,,,,,,
,,,,,,,,,,,,,,,,,,,,,,,,,,,,,,,,,,,,,,,,,,,5edbb1b58c2917046a9151d4,5ff3a3880538db50cfc60c88,2021-01-04_23h24.04.923,Colour_Similarity_Experiment_v1,2020.1.2,Win32,60,5ff3a352adaa099f7659f8cc,,,,,,,,,,,,,,,,,,,,FF,,,,,,,,7,0.46719,,,,,,,,,,,,,,,,,,,,,,,,,,,,8,20,54,1,0,0,response1disk,3,163,8,-2.000030518,1,0,0,rectangle,8,-2.000030518,1,0,0,5,4,0,0.002605,8,-2.000030518,1,0,0,0,0,0,154,1,,,,,,,,,,,,,,,,,,,,,
,,,,,,,,,,,,,,,,,,,,,,,,,,,,,,,,,,,,,,,,,,,5edbb1b58c2917046a9151d4,5ff3a3880538db50cfc60c88,2021-01-04_23h24.04.923,Colour_Similarity_Experiment_v1,2020.1.2,Win32,60,5ff3a352adaa099f7659f8cc,,,,,,,,,,,,,,,,,,,,FF,,,,,,,,7,0.398345,,,,,,,,,,,,,,,,,,,,,,,,,,,,8,26,52.99996948,1,0,0,response1disk,2,164,11,2,1,0,0,rectangle,11,2,1,0,0,5,3,0,0.00108,11,2,1,0,0,0,1,1,22,1,,,,,,,,,,,,,,,,,,,,,
,,,,,,,,,,,,,,,,,,,,,,,,,,,,,,,,,,,,,,,,,,,5edbb1b58c2917046a9151d4,5ff3a3880538db50cfc60c88,2021-01-04_23h24.04.923,Colour_Similarity_Experiment_v1,2020.1.2,Win32,60,5ff3a352adaa099f7659f8cc,,,,,,,,,,,,,,,,,,,,PF,,,,,,,,7,0.633975,,,,,,,,,,,,,,,,,,,,,,,,,,,,2,24,52.99996948,1,0,0,response1disk,6,165,7.000061035,7.999969482,1,0,0,rectangle,7.000061035,7.999969482,1,0,0,5,5,0,0.00115,7.000061035,7.999969482,1,0,0,0,2,2,113,1,,,,,,,,,,,,,,,,,,,,,
,,,,,,,,,,,,,,,,,,,,,,,,,,,,,,,,,,,,,,,,,,,5edbb1b58c2917046a9151d4,5ff3a3880538db50cfc60c88,2021-01-04_23h24.04.923,Colour_Similarity_Experiment_v1,2020.1.2,Win32,60,5ff3a352adaa099f7659f8cc,,,,,,,,,,,,,,,,,,,,PF,,,,,,,,7,0.566145,,,,,,,,,,,,,,,,,,,,,,,,,,,,6,21,47,1,0,0,response1disk,7,166,9,4,1,0,0,rectangle,9,4,1,0,0,5,2,0,0.000965,9,4,1,0,0,0,3,3,50,1,,,,,,,,,,,,,,,,,,,,,
,,,,,,,,,,,,,,,,,,,,,,,,,,,,,,,,,,,,,,,,,,,5edbb1b58c2917046a9151d4,5ff3a3880538db50cfc60c88,2021-01-04_23h24.04.923,Colour_Similarity_Experiment_v1,2020.1.2,Win32,60,5ff3a352adaa099f7659f8cc,,,,,,,,,,,,,,,,,,,,PF,,,,,,,,7,0.49993,,,,,,,,,,,,,,,,,,,,,,,,,,,,4,23,52,1,0,0,response1disk,2,167,11,7,1,0,0,rectangle,11,7,1,0,0,5,7,0,0.001805,11,7,1,0,0,0,4,4,108,1,,,,,,,,,,,,,,,,,,,,,
,,,,,,,,,,,,,,,,,,,,,,,,,,,,,,,,,,,,,,,,,,,5edbb1b58c2917046a9151d4,5ff3a3880538db50cfc60c88,2021-01-04_23h24.04.923,Colour_Similarity_Experiment_v1,2020.1.2,Win32,60,5ff3a352adaa099f7659f8cc,,,,,,,,,,,,,,,,,,,,FF,,,,,,,,7,0.650535,,,,,,,,,,,,,,,,,,,,,,,,,,,,4,26,44,1,0,0,response1disk,5,168,12.00006104,2.999969482,1,0,0,rectangle,12.00006104,2.999969482,1,0,0,5,3,0,0.002325,12.00006104,2.999969482,1,0,0,0,5,5,116,1,,,,,,,,,,,,,,,,,,,,,
,,,,,,,,,,,,,,,,,,,,,,,,,,,,,,,,,,,,,,,,,,,5edbb1b58c2917046a9151d4,5ff3a3880538db50cfc60c88,2021-01-04_23h24.04.923,Colour_Similarity_Experiment_v1,2020.1.2,Win32,60,5ff3a352adaa099f7659f8cc,,,,,,,,,,,,,,,,,,,,PF,,,,,,,,7,0.916755,,,,,,,,,,,,,,,,,,,,,,,,,,,,9,23,45,1,0,0,response1disk,4,169,17.00006104,4,1,0,0,rectangle,17.00006104,4,1,0,0,5,5,0,0.001345,17.00006104,4,1,0,0,0,6,6,114,1,,,,,,,,,,,,,,,,,,,,,
,,,,,,,,,,,,,,,,,,,,,,,,,,,,,,,,,,,,,,,,,,,5edbb1b58c2917046a9151d4,5ff3a3880538db50cfc60c88,2021-01-04_23h24.04.923,Colour_Similarity_Experiment_v1,2020.1.2,Win32,60,5ff3a352adaa099f7659f8cc,,,,,,,,,,,,,,,,,,,,FF,,,,,,,,7,0.485295,,,,,,,,,,,,,,,,,,,,,,,,,,,,2,29,52.99996948,1,0,0,response1disk,5,170,22.00006104,6,1,0,0,rectangle,22.00006104,6,1,0,0,5,2,0,0.00154,22.00006104,6,1,0,0,0,7,7,80,1,,,,,,,,,,,,,,,,,,,,,
,,,,,,,,,,,,,,,,,,,,,,,,,,,,,,,,,,,,,,,,,,,5edbb1b58c2917046a9151d4,5ff3a3880538db50cfc60c88,2021-01-04_23h24.04.923,Colour_Similarity_Experiment_v1,2020.1.2,Win32,60,5ff3a352adaa099f7659f8cc,,,,,,,,,,,,,,,,,,,,PF,,,,,,,,7,0.53614,,,,,,,,,,,,,,,,,,,,,,,,,,,,3,22.00006104,44,1,0,0,response1disk,1,171,17.00006104,1,1,0,0,rectangle,17.00006104,1,1,0,0,5,3,0,0.000975,17.00006104,1,1,0,0,0,8,8,96,1,,,,,,,,,,,,,,,,,,,,,
,,,,,,,,,,,,,,,,,,,,,,,,,,,,,,,,,,,,,,,,,,,5edbb1b58c2917046a9151d4,5ff3a3880538db50cfc60c88,2021-01-04_23h24.04.923,Colour_Similarity_Experiment_v1,2020.1.2,Win32,60,5ff3a352adaa099f7659f8cc,,,,,,,,,,,,,,,,,,,,PF,,,,,,,,7,0.56697,,,,,,,,,,,,,,,,,,,,,,,,,,,,4,24,49,1,0,0,response1disk,1,172,17.00006104,0,1,0,0,rectangle,17.00006104,0,1,0,0,5,1,0,0.001885,17.00006104,0,1,0,0,0,9,9,115,1,,,,,,,,,,,,,,,,,,,,,
,,,,,,,,,,,,,,,,,,,,,,,,,,,,,,,,,,,,,,,,,,,5edbb1b58c2917046a9151d4,5ff3a3880538db50cfc60c88,2021-01-04_23h24.04.923,Colour_Similarity_Experiment_v1,2020.1.2,Win32,60,5ff3a352adaa099f7659f8cc,,,,,,,,,,,,,,,,,,,,FF,,,,,,,,7,0.76622,,,,,,,,,,,,,,,,,,,,,,,,,,,,5,18,44,1,0,0,response1disk,9,173,13,6,1,0,0,rectangle,13,6,1,0,0,5,3,0,0.002635,13,6,1,0,0,0,10,10,61,1,,,,,,,,,,,,,,,,,,,,,
,,,,,,,,,,,,,,,,,,,,,,,,,,,,,,,,,,,,,,,,,,,5edbb1b58c2917046a9151d4,5ff3a3880538db50cfc60c88,2021-01-04_23h24.04.923,Colour_Similarity_Experiment_v1,2020.1.2,Win32,60,5ff3a352adaa099f7659f8cc,,,,,,,,,,,,,,,,,,,,PF,,,,,,,,0,0.916185,,,,,,,,,,,,,,,,,,,,,,,,,,,,2,-36,57.99996948,1,0,0,response7disk,2,174,-4,4,1,0,0,rectangle,-4,4,1,0,0,5,5,0,0.00226,-4,4,1,0,0,0,11,11,14,1,,,,,,,,,,,,,,,,,,,,,
,,,,,,,,,,,,,,,,,,,,,,,,,,,,,,,,,,,,,,,,,,,5edbb1b58c2917046a9151d4,5ff3a3880538db50cfc60c88,2021-01-04_23h24.04.923,Colour_Similarity_Experiment_v1,2020.1.2,Win32,60,5ff3a352adaa099f7659f8cc,,,,,,,,,,,,,,,,,,,,PF,,,,,,,,7,0.381375,,,,,,,,,,,,,,,,,,,,,,,,,,,,6,20,49,1,0,0,response1disk,1,175,3,2,1,0,0,rectangle,3,2,1,0,0,5,4,0,0.00118,3,2,1,0,0,0,12,12,46,1,,,,,,,,,,,,,,,,,,,,,
,,,,,,,,,,,,,,,,,,,,,,,,,,,,,,,,,,,,,,,,,,,5edbb1b58c2917046a9151d4,5ff3a3880538db50cfc60c88,2021-01-04_23h24.04.923,Colour_Similarity_Experiment_v1,2020.1.2,Win32,60,5ff3a352adaa099f7659f8cc,,,,,,,,,,,,,,,,,,,,FF,,,,,,,,7,0.56782,,,,,,,,,,,,,,,,,,,,,,,,,,,,1,22.00006104,50,1,0,0,response1disk,4,176,9,4,1,0,0,rectangle,9,4,1,0,0,5,1,0,0.00242,9,4,1,0,0,0,13,13,135,1,,,,,,,,,,,,,,,,,,,,,
,,,,,,,,,,,,,,,,,,,,,,,,,,,,,,,,,,,,,,,,,,,5edbb1b58c2917046a9151d4,5ff3a3880538db50cfc60c88,2021-01-04_23h24.04.923,Colour_Similarity_Experiment_v1,2020.1.2,Win32,60,5ff3a352adaa099f7659f8cc,,,,,,,,,,,,,,,,,,,,PF,,,,,,,,7,0.53172,,,,,,,,,,,,,,,,,,,,,,,,,,,,6,28,47.99996948,1,0,0,response1disk,3,177,12.00006104,2,1,0,0,rectangle,12.00006104,2,1,0,0,5,2,0,0.002585,12.00006104,2,1,0,0,0,14,14,26,1,,,,,,,,,,,,,,,,,,,,,
,,,,,,,,,,,,,,,,,,,,,,,,,,,,,,,,,,,,,,,,,,,5edbb1b58c2917046a9151d4,5ff3a3880538db50cfc60c88,2021-01-04_23h24.04.923,Colour_Similarity_Experiment_v1,2020.1.2,Win32,60,5ff3a352adaa099f7659f8cc,,,,,,,,,,,,,,,,,,,,FF,,,,,,,,7,0.599375,,,,,,,,,,,,,,,,,,,,,,,,,,,,7,25,49,1,0,0,response1disk,6,178,12.00006104,2.999969482,1,0,0,rectangle,12.00006104,2.999969482,1,0,0,5,2,0,0.000945,12.00006104,2.999969482,1,0,0,0,15,15,31,1,,,,,,,,,,,,,,,,,,,,,
,,,,,,,,,,,,,,,,,,,,,,,,,,,,,,,,,,,,,,,,,,,5edbb1b58c2917046a9151d4,5ff3a3880538db50cfc60c88,2021-01-04_23h24.04.923,Colour_Similarity_Experiment_v1,2020.1.2,Win32,60,5ff3a352adaa099f7659f8cc,,,,,,,,,,,,,,,,,,,,PF,,,,,,,,7,0.516555,,,,,,,,,,,,,,,,,,,,,,,,,,,,9,22.00006104,41,1,0,0,response1disk,7,179,11,0,1,0,0,rectangle,11,0,1,0,0,5,3,0,0.002015,11,0,1,0,0,0,16,16,121,1,,,,,,,,,,,,,,,,,,,,,
,,,,,,,,,,,,,,,,,,,,,,,,,,,,,,,,,,,,,,,,,,,5edbb1b58c2917046a9151d4,5ff3a3880538db50cfc60c88,2021-01-04_23h24.04.923,Colour_Similarity_Experiment_v1,2020.1.2,Win32,60,5ff3a352adaa099f7659f8cc,,,,,,,,,,,,,,,,,,,,FF,,,,,,,,7,0.45009,,,,,,,,,,,,,,,,,,,,,,,,,,,,6,25,49,1,0,0,response1disk,3,180,14,7,1,0,0,rectangle,14,7,1,0,0,5,3,0,0.00096,14,7,1,0,0,0,17,17,21,1,,,,,,,,,,,,,,,,,,,,,
,,,,,,,,,,,,,,,,,,,,,,,,,,,,,,,,,,,,,,,,,,,5edbb1b58c2917046a9151d4,5ff3a3880538db50cfc60c88,2021-01-04_23h24.04.923,Colour_Similarity_Experiment_v1,2020.1.2,Win32,60,5ff3a352adaa099f7659f8cc,,,,,,,,,,,,,,,,,,,,PF,,,,,,,,7,0.44989,,,,,,,,,,,,,,,,,,,,,,,,,,,,8,23,52.99996948,1,0,0,response1disk,1,181,7.000061035,9,1,0,0,rectangle,7.000061035,9,1,0,0,5,0,0,0.0019,7.000061035,9,1,0,0,0,18,18,57,1,,,,,,,,,,,,,,,,,,,,,
,,,,,,,,,,,,,,,,,,,,,,,,,,,,,,,,,,,,,,,,,,,5edbb1b58c2917046a9151d4,5ff3a3880538db50cfc60c88,2021-01-04_23h24.04.923,Colour_Similarity_Experiment_v1,2020.1.2,Win32,60,5ff3a352adaa099f7659f8cc,,,,,,,,,,,,,,,,,,,,FF,,,,,,,,7,0.66744,,,,,,,,,,,,,,,,,,,,,,,,,,,,4,24,46,1,0,0,response1disk,8,182,8,6,1,0,0,rectangle,8,6,1,0,0,5,4,0,0.002125,8,6,1,0,0,0,19,19,35,1,,,,,,,,,,,,,,,,,,,,,
,,,,,,,,,,,,,,,,,,,,,,,,,,,,,,,,,,,,,,,,,,,5edbb1b58c2917046a9151d4,5ff3a3880538db50cfc60c88,2021-01-04_23h24.04.923,Colour_Similarity_Experiment_v1,2020.1.2,Win32,60,5ff3a352adaa099f7659f8cc,,,,,,,,,,,,,,,,,,,,FF,,,,,,,,7,2.28258,,,,,,,,,,,,,,,,,,,,,,,,,,,,9,26,50,1,0,0,response1disk,9,183,19,12,1,0,0,rectangle,19,12,1,0,0,5,6,0,0.000895,19,12,1,0,0,0,20,20,17,1,,,,,,,,,,,,,,,,,,,,,
,,,,,,,,,,,,,,,,,,,,,,,,,,,,,,,,,,,,,,,,,,,5edbb1b58c2917046a9151d4,5ff3a3880538db50cfc60c88,2021-01-04_23h24.04.923,Colour_Similarity_Experiment_v1,2020.1.2,Win32,60,5ff3a352adaa099f7659f8cc,,,,,,,,,,,,,,,,,,,,FF,,,,,,,,7,0.64949,,,,,,,,,,,,,,,,,,,,,,,,,,,,5,25,47.99996948,1,0,0,response1disk,4,184,11,5,1,0,0,rectangle,11,5,1,0,0,5,3,0,0.00164,11,5,1,0,0,0,21,21,8,1,,,,,,,,,,,,,,,,,,,,,
,,,,,,,,,,,,,,,,,,,,,,,,,,,,,,,,,,,,,,,,,,,5edbb1b58c2917046a9151d4,5ff3a3880538db50cfc60c88,2021-01-04_23h24.04.923,Colour_Similarity_Experiment_v1,2020.1.2,Win32,60,5ff3a352adaa099f7659f8cc,,,,,,,,,,,,,,,,,,,,FF,,,,,,,,7,0.38325,,,,,,,,,,,,,,,,,,,,,,,,,,,,4,26,42,1,0,0,response1disk,9,185,8,-1,1,0,0,rectangle,8,-1,1,0,0,5,6,0,0.00106,8,-1,1,0,0,0,22,22,90,1,,,,,,,,,,,,,,,,,,,,,
,,,,,,,,,,,,,,,,,,,,,,,,,,,,,,,,,,,,,,,,,,,5edbb1b58c2917046a9151d4,5ff3a3880538db50cfc60c88,2021-01-04_23h24.04.923,Colour_Similarity_Experiment_v1,2020.1.2,Win32,60,5ff3a352adaa099f7659f8cc,,,,,,,,,,,,,,,,,,,,PF,,,,,,,,7,0.48335,,,,,,,,,,,,,,,,,,,,,,,,,,,,1,21,42,1,0,0,response1disk,3,186,15,2,1,0,0,rectangle,15,2,1,0,0,5,5,0,0.00219,15,2,1,0,0,0,23,23,1,1,,,,,,,,,,,,,,,,,,,,,
,,,,,,,,,,,,,,,,,,,,,,,,,,,,,,,,,,,,,,,,,,,5edbb1b58c2917046a9151d4,5ff3a3880538db50cfc60c88,2021-01-04_23h24.04.923,Colour_Similarity_Experiment_v1,2020.1.2,Win32,60,5ff3a352adaa099f7659f8cc,,,,,,,,,,,,,,,,,,,,PF,,,,,,,,7,1.1169,,,,,,,,,,,,,,,,,,,,,,,,,,,,3,32.00006104,51,1,0,0,response1disk,7,187,18,7,1,0,0,rectangle,18,7,1,0,0,5,5,0,0.00129,18,7,1,0,0,0,24,24,41,1,,,,,,,,,,,,,,,,,,,,,
,,,,,,,,,,,,,,,,,,,,,,,,,,,,,,,,,,,,,,,,,,,5edbb1b58c2917046a9151d4,5ff3a3880538db50cfc60c88,2021-01-04_23h24.04.923,Colour_Similarity_Experiment_v1,2020.1.2,Win32,60,5ff3a352adaa099f7659f8cc,,,,,,,,,,,,,,,,,,,,FF,,,,,,,,1,2.219005,,,,,,,,,,,,,,,,,,,,,,,,,,,,5,-66,34,1,0,0,response7disk,6,188,6,7,1,0,0,rectangle,6,7,1,0,0,5,0,0,0.00101,6,7,1,0,0,0,25,25,12,1,,,,,,,,,,,,,,,,,,,,,
,,,,,,,,,,,,,,,,,,,,,,,,,,,,,,,,,,,,,,,,,,,5edbb1b58c2917046a9151d4,5ff3a3880538db50cfc60c88,2021-01-04_23h24.04.923,Colour_Similarity_Experiment_v1,2020.1.2,Win32,60,5ff3a352adaa099f7659f8cc,,,,,,,,,,,,,,,,,,,,FF,,,,,,,,7,0.4834,,,,,,,,,,,,,,,,,,,,,,,,,,,,5,30,50,1,0,0,response1disk,2,189,9,6,1,0,0,rectangle,23,-51,1,0,0,4,4,1,1.08326,3,2,1,0,0,0,26,26,55,1,response3disk_3,rectangle,,,,,,,,,,,,,,,,,,,
,,,,,,,,,,,,,,,,,,,,,,,,,,,,,,,,,,,,,,,,,,,5edbb1b58c2917046a9151d4,5ff3a3880538db50cfc60c88,2021-01-04_23h24.04.923,Colour_Similarity_Experiment_v1,2020.1.2,Win32,60,5ff3a352adaa099f7659f8cc,,,,,,,,,,,,,,,,,,,,FF,,,,,,,,0,0.713455,,,,,,,,,,,,,,,,,,,,,,,,,,,,2,-21,66,1,0,0,response7disk,2,190,9,14,1,0,0,rectangle,9,14,1,0,0,4,1,0,0.000915,9,14,1,0,0,0,27,27,142,1,,,,,,,,,,,,,,,,,,,,,
,,,,,,,,,,,,,,,,,,,,,,,,,,,,,,,,,,,,,,,,,,,5edbb1b58c2917046a9151d4,5ff3a3880538db50cfc60c88,2021-01-04_23h24.04.923,Colour_Similarity_Experiment_v1,2020.1.2,Win32,60,5ff3a352adaa099f7659f8cc,,,,,,,,,,,,,,,,,,,,PF,,,,,,,,7,1.084465,,,,,,,,,,,,,,,,,,,,,,,,,,,,1,30,66,1,0,0,response1disk,5,191,5,6,1,0,0,rectangle,5,6,1,0,0,4,0,0,0.00098,5,6,1,0,0,0,28,28,28,1,,,,,,,,,,,,,,,,,,,,,
,,,,,,,,,,,,,,,,,,,,,,,,,,,,,,,,,,,,,,,,,,,5edbb1b58c2917046a9151d4,5ff3a3880538db50cfc60c88,2021-01-04_23h24.04.923,Colour_Similarity_Experiment_v1,2020.1.2,Win32,60,5ff3a352adaa099f7659f8cc,,,,,,,,,,,,,,,,,,,,PF,,,,,,,,0,1.11707,,,,,,,,,,,,,,,,,,,,,,,,,,,,3,-27.99993896,59,1,0,0,response7disk,3,192,-9,12,1,0,0,rectangle,-9,12,1,0,0,4,2,0,0.001035,-9,12,1,0,0,0,29,29,4,1,,,,,,,,,,,,,,,,,,,,,
,,,,,,,,,,,,,,,,,,,,,,,,,,,,,,,,,,,,,,,,,,,5edbb1b58c2917046a9151d4,5ff3a3880538db50cfc60c88,2021-01-04_23h24.04.923,Colour_Similarity_Experiment_v1,2020.1.2,Win32,60,5ff3a352adaa099f7659f8cc,,,,,,,,,,,,,,,,,,,,PF,,,,,,,,2,2.6166,,,,,,,,,,,,,,,,,,,,,,,,,,,,4,-75,-23,1,0,0,response5disk,4,193,14,17.99996948,1,0,0,rectangle,14,17.99996948,1,0,0,7,2,0,0.00332,14,17.99996948,1,0,0,0,30,30,70,1,,,,,,,,,,,,,,,,,,,,,
,,,,,,,,,,,,,,,,,,,,,,,,,,,,,,,,,,,,,,,,,,,5edbb1b58c2917046a9151d4,5ff3a3880538db50cfc60c88,2021-01-04_23h24.04.923,Colour_Similarity_Experiment_v1,2020.1.2,Win32,60,5ff3a352adaa099f7659f8cc,,,,,,,,,,,,,,,,,,,,FF,,,,,,,,7,0.65005,,,,,,,,,,,,,,,,,,,,,,,,,,,,5,32.00006104,50,1,0,0,response1disk,7,194,14,7,1,0,0,rectangle,14,7,1,0,0,7,7,0,0.0028,14,7,1,0,0,0,31,31,7,1,,,,,,,,,,,,,,,,,,,,,
,,,,,,,,,,,,,,,,,,,,,,,,,,,,,,,,,,,,,,,,,,,5edbb1b58c2917046a9151d4,5ff3a3880538db50cfc60c88,2021-01-04_23h24.04.923,Colour_Similarity_Experiment_v1,2020.1.2,Win32,60,5ff3a352adaa099f7659f8cc,,,,,,,,,,,,,,,,,,,,PF,,,,,,,,7,0.450005,,,,,,,,,,,,,,,,,,,,,,,,,,,,9,24,51,1,0,0,response1disk,5,195,-7.999938965,2.999969482,1,0,0,rectangle,-7.999938965,2.999969482,1,0,0,7,6,0,0.002815,-7.999938965,2.999969482,1,0,0,0,32,32,134,1,,,,,,,,,,,,,,,,,,,,,
,,,,,,,,,,,,,,,,,,,,,,,,,,,,,,,,,,,,,,,,,,,5edbb1b58c2917046a9151d4,5ff3a3880538db50cfc60c88,2021-01-04_23h24.04.923,Colour_Similarity_Experiment_v1,2020.1.2,Win32,60,5ff3a352adaa099f7659f8cc,,,,,,,,,,,,,,,,,,,,PF,,,,,,,,7,0.449905,,,,,,,,,,,,,,,,,,,,,,,,,,,,7,19,51,1,0,0,response1disk,4,196,7.000061035,0,1,0,0,rectangle,7.000061035,0,1,0,0,7,5,0,0.00282,7.000061035,0,1,0,0,0,33,33,43,1,,,,,,,,,,,,,,,,,,,,,
,,,,,,,,,,,,,,,,,,,,,,,,,,,,,,,,,,,,,,,,,,,5edbb1b58c2917046a9151d4,5ff3a3880538db50cfc60c88,2021-01-04_23h24.04.923,Colour_Similarity_Experiment_v1,2020.1.2,Win32,60,5ff3a352adaa099f7659f8cc,,,,,,,,,,,,,,,,,,,,PF,,,,,,,,7,0.517375,,,,,,,,,,,,,,,,,,,,,,,,,,,,5,23,52,1,0,0,response1disk,7,197,4,-4,1,0,0,rectangle,4,-4,1,0,0,7,1,0,0.00094,4,-4,1,0,0,0,34,34,146,1,,,,,,,,,,,,,,,,,,,,,
,,,,,,,,,,,,,,,,,,,,,,,,,,,,,,,,,,,,,,,,,,,5edbb1b58c2917046a9151d4,5ff3a3880538db50cfc60c88,2021-01-04_23h24.04.923,Colour_Similarity_Experiment_v1,2020.1.2,Win32,60,5ff3a352adaa099f7659f8cc,,,,,,,,,,,,,,,,,,,,FF,,,,,,,,7,0.45042,,,,,,,,,,,,,,,,,,,,,,,,,,,,4,20,47.99996948,1,0,0,response1disk,1,198,4,6,1,0,0,rectangle,4,6,1,0,0,7,0,0,0.00099,4,6,1,0,0,0,35,35,102,1,,,,,,,,,,,,,,,,,,,,,
,,,,,,,,,,,,,,,,,,,,,,,,,,,,,,,,,,,,,,,,,,,5edbb1b58c2917046a9151d4,5ff3a3880538db50cfc60c88,2021-01-04_23h24.04.923,Colour_Similarity_Experiment_v1,2020.1.2,Win32,60,5ff3a352adaa099f7659f8cc,,,,,,,,,,,,,,,,,,,,PF,,,,,,,,7,0.466935,,,,,,,,,,,,,,,,,,,,,,,,,,,,8,25,47.99996948,1,0,0,response1disk,3,199,8,-2.000030518,1,0,0,rectangle,8,-2.000030518,1,0,0,7,2,0,0.001065,8,-2.000030518,1,0,0,0,36,36,71,1,,,,,,,,,,,,,,,,,,,,,
,,,,,,,,,,,,,,,,,,,,,,,,,,,,,,,,,,,,,,,,,,,5edbb1b58c2917046a9151d4,5ff3a3880538db50cfc60c88,2021-01-04_23h24.04.923,Colour_Similarity_Experiment_v1,2020.1.2,Win32,60,5ff3a352adaa099f7659f8cc,,,,,,,,,,,,,,,,,,,,FF,,,,,,,,7,0.38383,,,,,,,,,,,,,,,,,,,,,,,,,,,,6,27.00006104,55,1,0,0,response1disk,1,200,8,9,1,0,0,rectangle,8,9,1,0,0,7,5,0,0.0011,8,9,1,0,0,0,37,37,5,1,,,,,,,,,,,,,,,,,,,,,
,,,,,,,,,,,,,,,,,,,,,,,,,,,,,,,,,,,,,,,,,,,5edbb1b58c2917046a9151d4,5ff3a3880538db50cfc60c88,2021-01-04_23h24.04.923,Colour_Similarity_Experiment_v1,2020.1.2,Win32,60,5ff3a352adaa099f7659f8cc,,,,,,,,,,,,,,,,,,,,FF,,,,,,,,7,0.38316,,,,,,,,,,,,,,,,,,,,,,,,,,,,3,17.00006104,54,1,0,0,response1disk,7,201,5,6,1,0,0,rectangle,5,6,1,0,0,7,2,0,0.000975,5,6,1,0,0,0,38,38,118,1,,,,,,,,,,,,,,,,,,,,,
,,,,,,,,,,,,,,,,,,,,,,,,,,,,,,,,,,,,,,,,,,,5edbb1b58c2917046a9151d4,5ff3a3880538db50cfc60c88,2021-01-04_23h24.04.923,Colour_Similarity_Experiment_v1,2020.1.2,Win32,60,5ff3a352adaa099f7659f8cc,,,,,,,,,,,,,,,,,,,,FF,,,,,,,,7,0.408195,,,,,,,,,,,,,,,,,,,,,,,,,,,,2,24,50,1,0,0,response1disk,9,202,9,2,1,0,0,rectangle,9,2,1,0,0,7,1,0,0.002285,9,2,1,0,0,0,39,39,72,1,,,,,,,,,,,,,,,,,,,,,
,,,,,,,,,,,,,,,,,,,,,,,,,,,,,,,,,,,,,,,,,,,5edbb1b58c2917046a9151d4,5ff3a3880538db50cfc60c88,2021-01-04_23h24.04.923,Colour_Similarity_Experiment_v1,2020.1.2,Win32,60,5ff3a352adaa099f7659f8cc,,,,,,,,,,,,,,,,,,,,FF,,,,,,,,7,0.449795,,,,,,,,,,,,,,,,,,,,,,,,,,,,5,23,54,1,0,0,response1disk,8,203,9,4,1,0,0,rectangle,9,4,1,0,0,7,0,0,0.002635,9,4,1,0,0,0,40,40,16,1,,,,,,,,,,,,,,,,,,,,,
,,,,,,,,,,,,,,,,,,,,,,,,,,,,,,,,,,,,,,,,,,,5edbb1b58c2917046a9151d4,5ff3a3880538db50cfc60c88,2021-01-04_23h24.04.923,Colour_Similarity_Experiment_v1,2020.1.2,Win32,60,5ff3a352adaa099f7659f8cc,,,,,,,,,,,,,,,,,,,,PF,,,,,,,,0,0.833185,,,,,,,,,,,,,,,,,,,,,,,,,,,,5,-31,67,1,0,0,response7disk,5,204,-6,6,1,0,0,rectangle,-6,6,1,0,0,7,2,0,0.001175,-6,6,1,0,0,0,41,41,94,1,,,,,,,,,,,,,,,,,,,,,
,,,,,,,,,,,,,,,,,,,,,,,,,,,,,,,,,,,,,,,,,,,5edbb1b58c2917046a9151d4,5ff3a3880538db50cfc60c88,2021-01-04_23h24.04.923,Colour_Similarity_Experiment_v1,2020.1.2,Win32,60,5ff3a352adaa099f7659f8cc,,,,,,,,,,,,,,,,,,,,PF,,,,,,,,7,0.650155,,,,,,,,,,,,,,,,,,,,,,,,,,,,8,23,57.99996948,1,0,0,response1disk,4,205,8,7,1,0,0,rectangle,8,7,1,0,0,7,2,0,0.00106,8,7,1,0,0,0,42,42,78,1,,,,,,,,,,,,,,,,,,,,,
,,,,,,,,,,,,,,,,,,,,,,,,,,,,,,,,,,,,,,,,,,,5edbb1b58c2917046a9151d4,5ff3a3880538db50cfc60c88,2021-01-04_23h24.04.923,Colour_Similarity_Experiment_v1,2020.1.2,Win32,60,5ff3a352adaa099f7659f8cc,,,,,,,,,,,,,,,,,,,,PF,,,,,,,,7,0.44966,,,,,,,,,,,,,,,,,,,,,,,,,,,,6,26,62.99996948,1,0,0,response1disk,8,206,6,6,1,0,0,rectangle,6,6,1,0,0,7,3,0,0.00099,6,6,1,0,0,0,43,43,64,1,,,,,,,,,,,,,,,,,,,,,
,,,,,,,,,,,,,,,,,,,,,,,,,,,,,,,,,,,,,,,,,,,5edbb1b58c2917046a9151d4,5ff3a3880538db50cfc60c88,2021-01-04_23h24.04.923,Colour_Similarity_Experiment_v1,2020.1.2,Win32,60,5ff3a352adaa099f7659f8cc,,,,,,,,,,,,,,,,,,,,FF,,,,,,,,7,0.43322,,,,,,,,,,,,,,,,,,,,,,,,,,,,3,18,55,1,0,0,response1disk,9,207,8,9,1,0,0,rectangle,8,9,1,0,0,7,0,0,0.00134,8,9,1,0,0,0,44,44,143,1,,,,,,,,,,,,,,,,,,,,,
,,,,,,,,,,,,,,,,,,,,,,,,,,,,,,,,,,,,,,,,,,,5edbb1b58c2917046a9151d4,5ff3a3880538db50cfc60c88,2021-01-04_23h24.04.923,Colour_Similarity_Experiment_v1,2020.1.2,Win32,60,5ff3a352adaa099f7659f8cc,,,,,,,,,,,,,,,,,,,,PF,,,,,,,,7,0.71675,,,,,,,,,,,,,,,,,,,,,,,,,,,,3,29,55,1,0,0,response1disk,6,208,15,9,1,0,0,rectangle,15,9,1,0,0,7,1,0,0.00189,15,9,1,0,0,0,45,45,47,1,,,,,,,,,,,,,,,,,,,,,
,,,,,,,,,,,,,,,,,,,,,,,,,,,,,,,,,,,,,,,,,,,5edbb1b58c2917046a9151d4,5ff3a3880538db50cfc60c88,2021-01-04_23h24.04.923,Colour_Similarity_Experiment_v1,2020.1.2,Win32,60,5ff3a352adaa099f7659f8cc,,,,,,,,,,,,,,,,,,,,FF,,,,,,,,0,0.666035,,,,,,,,,,,,,,,,,,,,,,,,,,,,6,-31,69,1,0,0,response7disk,6,209,-7,16,1,0,0,rectangle,-7,16,1,0,0,7,0,0,0.002035,-7,16,1,0,0,0,46,46,91,1,,,,,,,,,,,,,,,,,,,,,
,,,,,,,,,,,,,,,,,,,,,,,,,,,,,,,,,,,,,,,,,,,5edbb1b58c2917046a9151d4,5ff3a3880538db50cfc60c88,2021-01-04_23h24.04.923,Colour_Similarity_Experiment_v1,2020.1.2,Win32,60,5ff3a352adaa099f7659f8cc,,,,,,,,,,,,,,,,,,,,PF,,,,,,,,7,0.399525,,,,,,,,,,,,,,,,,,,,,,,,,,,,5,31,62,1,0,0,response1disk,9,210,12.00006104,12.99996948,1,0,0,rectangle,79,-40,1,0,0,5,5,1,1.066745,21,-1,1,0,0,0,47,47,136,1,response3disk_3,rectangle,,,,,,,,,,,,,,,,,,,
,,,,,,,,,,,,,,,,,,,,,,,,,,,,,,,,,,,,,,,,,,,5edbb1b58c2917046a9151d4,5ff3a3880538db50cfc60c88,2021-01-04_23h24.04.923,Colour_Similarity_Experiment_v1,2020.1.2,Win32,60,5ff3a352adaa099f7659f8cc,,,,,,,,,,,,,,,,,,,,FF,,,,,,,,7,0.402145,,,,,,,,,,,,,,,,,,,,,,,,,,,,9,35,56,1,0,0,response1disk,1,211,2.000061035,7.999969482,1,0,0,rectangle,2.000061035,7.999969482,1,0,0,5,1,0,0.002465,2.000061035,7.999969482,1,0,0,0,48,48,111,1,,,,,,,,,,,,,,,,,,,,,
,,,,,,,,,,,,,,,,,,,,,,,,,,,,,,,,,,,,,,,,,,,5edbb1b58c2917046a9151d4,5ff3a3880538db50cfc60c88,2021-01-04_23h24.04.923,Colour_Similarity_Experiment_v1,2020.1.2,Win32,60,5ff3a352adaa099f7659f8cc,,,,,,,,,,,,,,,,,,,,PF,,,,,,,,7,0.33332,,,,,,,,,,,,,,,,,,,,,,,,,,,,8,27.00006104,49,1,0,0,response1disk,2,212,6,-2.000030518,1,0,0,rectangle,6,-2.000030518,1,0,0,5,7,0,0.003725,6,-2.000030518,1,0,0,0,49,49,83,1,,,,,,,,,,,,,,,,,,,,,
,,,,,,,,,,,,,,,,,,,,,,,,,,,,,,,,,,,,,,,,,,,5edbb1b58c2917046a9151d4,5ff3a3880538db50cfc60c88,2021-01-04_23h24.04.923,Colour_Similarity_Experiment_v1,2020.1.2,Win32,60,5ff3a352adaa099f7659f8cc,,,,,,,,,,,,,,,,,,,,FF,,,,,,,,7,14.58283,,,,,,,,,,,,,,,,,,,,,,,,,,,,7,50,90,1,0,0,response1disk,9,213,17.00006104,7.999969482,1,0,0,rectangle,17.00006104,7.999969482,1,0,0,5,2,0,0.001275,17.00006104,7.999969482,1,0,0,0,50,50,155,1,,,,,,,,,,,,,,,,,,,,,
,,,,,,,,,,,,,,,,,,,,,,,,,,,,,,,,,,,,,,,,,,,5edbb1b58c2917046a9151d4,5ff3a3880538db50cfc60c88,2021-01-04_23h24.04.923,Colour_Similarity_Experiment_v1,2020.1.2,Win32,60,5ff3a352adaa099f7659f8cc,,,,,,,,,,,,,,,,,,,,FF,,,,,,,,7,1.16478,,,,,,,,,,,,,,,,,,,,,,,,,,,,7,31,66,1,0,0,response1disk,1,214,10,4,1,0,0,rectangle,10,4,1,0,0,5,0,0,0.001285,10,4,1,0,0,0,51,51,132,1,,,,,,,,,,,,,,,,,,,,,
,,,,,,,,,,,,,,,,,,,,,,,,,,,,,,,,,,,,,,,,,,,5edbb1b58c2917046a9151d4,5ff3a3880538db50cfc60c88,2021-01-04_23h24.04.923,Colour_Similarity_Experiment_v1,2020.1.2,Win32,60,5ff3a352adaa099f7659f8cc,,,,,,,,,,,,,,,,,,,,FF,,,,,,,,7,0.401325,,,,,,,,,,,,,,,,,,,,,,,,,,,,1,37.00006104,67,1,0,0,response1disk,5,215,5,4,1,0,0,rectangle,5,4,1,0,0,5,4,0,0.00296,5,4,1,0,0,0,52,52,82,1,,,,,,,,,,,,,,,,,,,,,
,,,,,,,,,,,,,,,,,,,,,,,,,,,,,,,,,,,,,,,,,,,5edbb1b58c2917046a9151d4,5ff3a3880538db50cfc60c88,2021-01-04_23h24.04.923,Colour_Similarity_Experiment_v1,2020.1.2,Win32,60,5ff3a352adaa099f7659f8cc,,,,,,,,,,,,,,,,,,,,PF,,,,,,,,7,0.48715,,,,,,,,,,,,,,,,,,,,,,,,,,,,8,31,81,1,0,0,response1disk,6,216,-7.999938965,6,1,0,0,rectangle,-31,75,1,0,0,0,0,1,1.091765,-2,-1,1,0,0,0,53,53,161,1,response7disk_3,rectangle,,,,,,,,,,,,,,,,,,,
,,,,,,,,,,,,,,,,,,,,,,,,,,,,,,,,,,,,,,,,,,,5edbb1b58c2917046a9151d4,5ff3a3880538db50cfc60c88,2021-01-04_23h24.04.923,Colour_Similarity_Experiment_v1,2020.1.2,Win32,60,5ff3a352adaa099f7659f8cc,,,,,,,,,,,,,,,,,,,,PF,,,,,,,,7,0.57371,,,,,,,,,,,,,,,,,,,,,,,,,,,,3,41,67.99996948,1,0,0,response1disk,8,217,10,4,1,0,0,rectangle,10,4,1,0,0,0,6,0,0.001355,10,4,1,0,0,0,54,54,3,1,,,,,,,,,,,,,,,,,,,,,
,,,,,,,,,,,,,,,,,,,,,,,,,,,,,,,,,,,,,,,,,,,5edbb1b58c2917046a9151d4,5ff3a3880538db50cfc60c88,2021-01-04_23h24.04.923,Colour_Similarity_Experiment_v1,2020.1.2,Win32,60,5ff3a352adaa099f7659f8cc,,,,,,,,,,,,,,,,,,,,PF,,,,,,,,7,0.388295,,,,,,,,,,,,,,,,,,,,,,,,,,,,1,28,75,1,0,0,response1disk,8,218,-1,7,1,0,0,rectangle,-1,7,1,0,0,0,6,0,0.00228,-1,7,1,0,0,0,55,55,65,1,,,,,,,,,,,,,,,,,,,,,
,,,,,,,,,,,,,,,,,,,,,,,,,,,,,,,,,,,,,,,,,,,5edbb1b58c2917046a9151d4,5ff3a3880538db50cfc60c88,2021-01-04_23h24.04.923,Colour_Similarity_Experiment_v1,2020.1.2,Win32,60,5ff3a352adaa099f7659f8cc,,,,,,,,,,,,,,,,,,,,FF,,,,,,,,7,0.373595,,,,,,,,,,,,,,,,,,,,,,,,,,,,7,27.00006104,67.99996948,1,0,0,response1disk,2,219,-4,2,1,0,0,rectangle,-4,2,1,0,0,0,7,0,0.001565,-4,2,1,0,0,0,56,56,138,1,,,,,,,,,,,,,,,,,,,,,
,,,,,,,,,,,,,,,,,,,,,,,,,,,,,,,,,,,,,,,,,,,5edbb1b58c2917046a9151d4,5ff3a3880538db50cfc60c88,2021-01-04_23h24.04.923,Colour_Similarity_Experiment_v1,2020.1.2,Win32,60,5ff3a352adaa099f7659f8cc,,,,,,,,,,,,,,,,,,,,FF,,,,,,,,0,0.734455,,,,,,,,,,,,,,,,,,,,,,,,,,,,4,-32,72,1,0,0,response7disk,4,220,-4,2,1,0,0,rectangle,-4,2,1,0,0,0,5,0,0.0014,-4,2,1,0,0,0,57,57,84,1,,,,,,,,,,,,,,,,,,,,,
,,,,,,,,,,,,,,,,,,,,,,,,,,,,,,,,,,,,,,,,,,,5edbb1b58c2917046a9151d4,5ff3a3880538db50cfc60c88,2021-01-04_23h24.04.923,Colour_Similarity_Experiment_v1,2020.1.2,Win32,60,5ff3a352adaa099f7659f8cc,,,,,,,,,,,,,,,,,,,,PF,,,,,,,,7,0.358955,,,,,,,,,,,,,,,,,,,,,,,,,,,,8,36,67.99996948,1,0,0,response1disk,5,221,8,5,1,0,0,rectangle,8,5,1,0,0,0,0,0,0.00239,8,5,1,0,0,0,58,58,98,1,,,,,,,,,,,,,,,,,,,,,
,,,,,,,,,,,,,,,,,,,,,,,,,,,,,,,,,,,,,,,,,,,5edbb1b58c2917046a9151d4,5ff3a3880538db50cfc60c88,2021-01-04_23h24.04.923,Colour_Similarity_Experiment_v1,2020.1.2,Win32,60,5ff3a352adaa099f7659f8cc,,,,,,,,,,,,,,,,,,,,FF,,,,,,,,7,0.47337,,,,,,,,,,,,,,,,,,,,,,,,,,,,8,35,56,1,0,0,response1disk,9,222,4,-5,1,0,0,rectangle,4,-5,1,0,0,0,0,0,0.00155,4,-5,1,0,0,0,59,59,105,1,,,,,,,,,,,,,,,,,,,,,
,,,,,,,,,,,,,,,,,,,,,,,,,,,,,,,,,,,,,,,,,,,5edbb1b58c2917046a9151d4,5ff3a3880538db50cfc60c88,2021-01-04_23h24.04.923,Colour_Similarity_Experiment_v1,2020.1.2,Win32,60,5ff3a352adaa099f7659f8cc,,,,,,,,,,,,,,,,,,,,PF,,,,,,,,7,0.481465,,,,,,,,,,,,,,,,,,,,,,,,,,,,5,39,60,1,0,0,response1disk,3,223,13,-2.000030518,1,0,0,rectangle,13,-2.000030518,1,0,0,0,6,0,0.00148,13,-2.000030518,1,0,0,0,60,60,109,1,,,,,,,,,,,,,,,,,,,,,
,,,,,,,,,,,,,,,,,,,,,,,,,,,,,,,,,,,,,,,,,,,5edbb1b58c2917046a9151d4,5ff3a3880538db50cfc60c88,2021-01-04_23h24.04.923,Colour_Similarity_Experiment_v1,2020.1.2,Win32,60,5ff3a352adaa099f7659f8cc,,,,,,,,,,,,,,,,,,,,PF,,,,,,,,7,0.401025,,,,,,,,,,,,,,,,,,,,,,,,,,,,9,30,75,1,0,0,response1disk,1,224,-7.999938965,-2.000030518,1,0,0,rectangle,-7.999938965,-2.000030518,1,0,0,0,1,0,0.00161,-7.999938965,-2.000030518,1,0,0,0,61,61,74,1,,,,,,,,,,,,,,,,,,,,,
,,,,,,,,,,,,,,,,,,,,,,,,,,,,,,,,,,,,,,,,,,,5edbb1b58c2917046a9151d4,5ff3a3880538db50cfc60c88,2021-01-04_23h24.04.923,Colour_Similarity_Experiment_v1,2020.1.2,Win32,60,5ff3a352adaa099f7659f8cc,,,,,,,,,,,,,,,,,,,,FF,,,,,,,,7,0.48381,,,,,,,,,,,,,,,,,,,,,,,,,,,,6,31,77,1,0,0,response1disk,8,225,13,14,1,0,0,rectangle,13,14,1,0,0,7,4,0,0.00114,13,14,1,0,0,0,62,62,133,1,,,,,,,,,,,,,,,,,,,,,
,,,,,,,,,,,,,,,,,,,,,,,,,,,,,,,,,,,,,,,,,,,5edbb1b58c2917046a9151d4,5ff3a3880538db50cfc60c88,2021-01-04_23h24.04.923,Colour_Similarity_Experiment_v1,2020.1.2,Win32,60,5ff3a352adaa099f7659f8cc,,,,,,,,,,,,,,,,,,,,FF,,,,,,,,7,0.4171,,,,,,,,,,,,,,,,,,,,,,,,,,,,1,44,89,1,0,0,response1disk,6,226,13,10,1,0,0,rectangle,13,10,1,0,0,7,3,0,0.002575,13,10,1,0,0,0,63,63,58,1,,,,,,,,,,,,,,,,,,,,,
,,,,,,,,,,,,,,,,,,,,,,,,,,,,,,,,,,,,,,,,,,,5edbb1b58c2917046a9151d4,5ff3a3880538db50cfc60c88,2021-01-04_23h24.04.923,Colour_Similarity_Experiment_v1,2020.1.2,Win32,60,5ff3a352adaa099f7659f8cc,,,,,,,,,,,,,,,,,,,,FF,,,,,,,,7,0.61675,,,,,,,,,,,,,,,,,,,,,,,,,,,,8,34,72,1,0,0,response1disk,1,227,10,-2.000030518,1,0,0,rectangle,10,-2.000030518,1,0,0,7,6,0,0.00281,10,-2.000030518,1,0,0,0,64,64,20,1,,,,,,,,,,,,,,,,,,,,,
,,,,,,,,,,,,,,,,,,,,,,,,,,,,,,,,,,,,,,,,,,,5edbb1b58c2917046a9151d4,5ff3a3880538db50cfc60c88,2021-01-04_23h24.04.923,Colour_Similarity_Experiment_v1,2020.1.2,Win32,60,5ff3a352adaa099f7659f8cc,,,,,,,,,,,,,,,,,,,,FF,,,,,,,,7,1.00053,,,,,,,,,,,,,,,,,,,,,,,,,,,,3,33,65,1,0,0,response1disk,1,228,3,-8,1,0,0,rectangle,3,-8,1,0,0,7,5,0,0.000875,3,-8,1,0,0,0,65,65,125,1,,,,,,,,,,,,,,,,,,,,,
,,,,,,,,,,,,,,,,,,,,,,,,,,,,,,,,,,,,,,,,,,,5edbb1b58c2917046a9151d4,5ff3a3880538db50cfc60c88,2021-01-04_23h24.04.923,Colour_Similarity_Experiment_v1,2020.1.2,Win32,60,5ff3a352adaa099f7659f8cc,,,,,,,,,,,,,,,,,,,,FF,,,,,,,,7,0.549845,,,,,,,,,,,,,,,,,,,,,,,,,,,,3,26,67.99996948,1,0,0,response1disk,4,229,-2.999938965,5,1,0,0,rectangle,-2.999938965,5,1,0,0,7,2,0,0.00097,-2.999938965,5,1,0,0,0,66,66,110,1,,,,,,,,,,,,,,,,,,,,,
,,,,,,,,,,,,,,,,,,,,,,,,,,,,,,,,,,,,,,,,,,,5edbb1b58c2917046a9151d4,5ff3a3880538db50cfc60c88,2021-01-04_23h24.04.923,Colour_Similarity_Experiment_v1,2020.1.2,Win32,60,5ff3a352adaa099f7659f8cc,,,,,,,,,,,,,,,,,,,,PF,,,,,,,,7,0.43295,,,,,,,,,,,,,,,,,,,,,,,,,,,,7,34,71,1,0,0,response1disk,1,230,2.000061035,2.999969482,1,0,0,rectangle,2.000061035,2.999969482,1,0,0,7,5,0,0.00114,2.000061035,2.999969482,1,0,0,0,67,67,53,1,,,,,,,,,,,,,,,,,,,,,
,,,,,,,,,,,,,,,,,,,,,,,,,,,,,,,,,,,,,,,,,,,5edbb1b58c2917046a9151d4,5ff3a3880538db50cfc60c88,2021-01-04_23h24.04.923,Colour_Similarity_Experiment_v1,2020.1.2,Win32,60,5ff3a352adaa099f7659f8cc,,,,,,,,,,,,,,,,,,,,FF,,,,,,,,7,0.4662,,,,,,,,,,,,,,,,,,,,,,,,,,,,9,28,59,1,0,0,response1disk,4,231,3,-5,1,0,0,rectangle,3,-5,1,0,0,7,6,0,0.00116,3,-5,1,0,0,0,68,68,60,1,,,,,,,,,,,,,,,,,,,,,
