key_resp.keys,key_resp.rt,key_resp_16.keys,key_resp_16.rt,key_resp_2.keys,key_resp_2.rt,X Scale,ratio_pxpermm,screen_size_x,screen_size_y,testsize,key_resp_3.keys,key_resp_3.rt,key_resp_4.keys,key_resp_4.rt,line_size,key_resp_5.keys,key_resp_5.rt,key_resp_6.keys,key_resp_6.rt,key_resp_8.keys,key_resp_8.rt,key_resp_7.keys,key_resp_7.rt,key_resp_12.keys,key_resp_12.rt,key_resp_11.keys,key_resp_11.rt,key_resp_18.keys,key_resp_18.rt,key_resp_21.keys,key_resp_21.rt,key_resp_13.keys,key_resp_13.rt,key_resp_19.keys,key_resp_19.rt,ballposx,viewer_distance,trials.thisRepN,trials.thisTrialN,trials.thisN,trials.thisIndex,trials.ran,participant,session,date,expName,psychopyVersion,OS,frameRate,study_id,viewerdistancecm,DVA_to_distance,radius_F,radius_P,r_F,R_P,key_resp_20.keys,key_resp_20.rt,key_resp_14.keys,key_resp_14.rt,key_resp_15.keys,key_resp_15.rt,key_resp_17.keys,key_resp_17.rt,key_resp_9.keys,key_resp_9.rt,key_resp_10.keys,key_resp_10.rt,Colour_1,Ecc,mouse_5.x,mouse_5.y,mouse_5.leftButton,mouse_5.midButton,mouse_5.rightButton,mouse_5.clicked_name,Colour_2,similarity,response_time,mouse_10.x,mouse_10.y,mouse_10.leftButton,mouse_10.midButton,mouse_10.rightButton,mouse_10.clicked_name,mouse_7.x,mouse_7.y,mouse_7.leftButton,mouse_7.midButton,mouse_7.rightButton,mouse_7.clicked_name,catchprac,catchnumberprac,mouse_6.x,mouse_6.y,mouse_6.leftButton,mouse_6.midButton,mouse_6.rightButton,mouse_6.clicked_name,duringprac.thisRepN,duringprac.thisTrialN,duringprac.thisN,duringprac.thisIndex,duringprac.ran,key_resp_22.keys,key_resp_22.rt,Colour1,mouse.x,mouse.y,mouse.leftButton,mouse.midButton,mouse.rightButton,mouse.clicked_name,Colour2,trialnumber,mouse_2.x,mouse_2.y,mouse_2.leftButton,mouse_2.midButton,mouse_2.rightButton,mouse_2.clicked_name,mouse_3.x,mouse_3.y,mouse_3.leftButton,mouse_3.midButton,mouse_3.rightButton,catchresponse,catchnumber,Catch,response_time_catch,mouse_11.x,mouse_11.y,mouse_11.leftButton,mouse_11.midButton,mouse_11.rightButton,trials_2.thisRepN,trials_2.thisTrialN,trials_2.thisN,trials_2.thisIndex,trials_2.ran,mouse_3.clicked_name,mouse_11.clicked_name,trials_3.thisRepN,trials_3.thisTrialN,trials_3.thisN,trials_3.thisIndex,trials_3.ran,answer1,rt1,answer2,rt2,answer3,rt3,answer4,rt4,answer5,rt5,answer6,rt6,answer7,rt7
space,1.201375,space,10.113285,space,4.568765,52.7,5.27,259.2030361,145.7305503,1366,space,31.23964,space,13.3206,105.4,space,11.481015,space,3.1077,space,1.981665,space,5.4821,space,8.08356,space,12.584315,space,11.67163,space,17.73313,space,21.36392,return,27.017435,-1122.852,1319.342989,0,0,0,0,1,5eea256b9e506b0d09822cdc,5ff3a4a9cb7697a1f315237d,2021-01-04_23h28.57.048,Colour_Similarity_Experiment_v1,2020.1.2,Win32,60,5ff3a352adaa099f7659f8cc,,,,,,,,,,,,,,,,,,,,,,,,,,,,,,,,,,,,,,,,,,,,,,,,,,,,,,,,,,,,,,,,,,,,,,,,,,,,,,,,,,,,,,,,,,,,,,,,,,,,,,,,,,,,,,,
,,,,,,,,,,,,,,,,,,,,,,,,,,,,,,,,,,return,12.433565,-954.834,1186.544963,1,0,1,0,1,5eea256b9e506b0d09822cdc,5ff3a4a9cb7697a1f315237d,2021-01-04_23h28.57.048,Colour_Similarity_Experiment_v1,2020.1.2,Win32,60,5ff3a352adaa099f7659f8cc,,,,,,,,,,,,,,,,,,,,,,,,,,,,,,,,,,,,,,,,,,,,,,,,,,,,,,,,,,,,,,,,,,,,,,,,,,,,,,,,,,,,,,,,,,,,,,,,,,,,,,,,,,,,,,,
,,,,,,,,,,,,,,,,,,,,,,,,,,,,,,,,,,return,7.659355,-397.506,746.0441943,2,0,2,0,1,5eea256b9e506b0d09822cdc,5ff3a4a9cb7697a1f315237d,2021-01-04_23h28.57.048,Colour_Similarity_Experiment_v1,2020.1.2,Win32,60,5ff3a352adaa099f7659f8cc,,,,,,,,,,,,,,,,,,,,,,,,,,,,,,,,,,,,,,,,,,,,,,,,,,,,,,,,,,,,,,,,,,,,,,,,,,,,,,,,,,,,,,,,,,,,,,,,,,,,,,,,,,,,,,,
,,,,,,,,,,,,,,,,,,,,,,,,,,,,,,,,,,return,7.43596,-358.575,715.27392,3,0,3,0,1,5eea256b9e506b0d09822cdc,5ff3a4a9cb7697a1f315237d,2021-01-04_23h28.57.048,Colour_Similarity_Experiment_v1,2020.1.2,Win32,60,5ff3a352adaa099f7659f8cc,,,,,,,,,,,,,,,,,,,,,,,,,,,,,,,,,,,,,,,,,,,,,,,,,,,,,,,,,,,,,,,,,,,,,,,,,,,,,,,,,,,,,,,,,,,,,,,,,,,,,,,,,,,,,,,
,,,,,,,,,,,,,,,,,,,,,,,,,,,,,,,,,,return,6.952435,-313.497,679.6451814,4,0,4,0,1,5eea256b9e506b0d09822cdc,5ff3a4a9cb7697a1f315237d,2021-01-04_23h28.57.048,Colour_Similarity_Experiment_v1,2020.1.2,Win32,60,5ff3a352adaa099f7659f8cc,,,,,,,,,,,,,,,,,,,,,,,,,,,,,,,,,,,,,,,,,,,,,,,,,,,,,,,,,,,,,,,,,,,,,,,,,,,,,,,,,,,,,,,,,,,,,,,,,,,,,,,,,,,,,,,
,,,,,,,,,,,,,,,,,,,,,,,,,,,,,,,,,,,,,,,,,,,5eea256b9e506b0d09822cdc,5ff3a4a9cb7697a1f315237d,2021-01-04_23h28.57.048,Colour_Similarity_Experiment_v1,2020.1.2,Win32,60,5ff3a352adaa099f7659f8cc,68,11.86943991,93.82792246,625.5194831,62.55194831,281.4837674,space,4.667955,space,4.59103,space,12.64062,space,4.80579,space,4.13613,space,4.52934,1,FF,-59,77,1,0,0,response7disk_5,5,0,21.32993,-7,-4,1,0,0,rectangle_8,39,92,1,0,0,response1disk_7,7,7,-7,-7,1,0,0,rectangle_4,0,0,0,0,1,,,,,,,,,,,,,,,,,,,,,,,,,,,,,,,,,,,,,,,,,,,,,,,,,,,,,,,,,
,,,,,,,,,,,,,,,,,,,,,,,,,,,,,,,,,,,,,,,,,,,5eea256b9e506b0d09822cdc,5ff3a4a9cb7697a1f315237d,2021-01-04_23h28.57.048,Colour_Similarity_Experiment_v1,2020.1.2,Win32,60,5ff3a352adaa099f7659f8cc,,,,,,,,,,,,,,,,,,,2,PF,39,106,1,0,0,response1disk_5,6,7,8.051215,0,6,1,0,0,rectangle_8,0,6,1,0,0,,,7,0,6,1,0,0,,0,1,1,6,1,,,,,,,,,,,,,,,,,,,,,,,,,,,,,,,,,,,,,,,,,,,,,,,,,,,,,,,,,
,,,,,,,,,,,,,,,,,,,,,,,,,,,,,,,,,,,,,,,,,,,5eea256b9e506b0d09822cdc,5ff3a4a9cb7697a1f315237d,2021-01-04_23h28.57.048,Colour_Similarity_Experiment_v1,2020.1.2,Win32,60,5ff3a352adaa099f7659f8cc,,,,,,,,,,,,,,,,,,,8,PF,-85,31,1,0,0,response7disk_5,9,1,6.832545,-3,7,1,0,0,rectangle_8,-3,7,1,0,0,,,7,-3,7,1,0,0,,0,2,2,2,1,,,,,,,,,,,,,,,,,,,,,,,,,,,,,,,,,,,,,,,,,,,,,,,,,,,,,,,,,
,,,,,,,,,,,,,,,,,,,,,,,,,,,,,,,,,,,,,,,,,,,5eea256b9e506b0d09822cdc,5ff3a4a9cb7697a1f315237d,2021-01-04_23h28.57.048,Colour_Similarity_Experiment_v1,2020.1.2,Win32,60,5ff3a352adaa099f7659f8cc,,,,,,,,,,,,,,,,,,,5,FF,29,-109,1,0,0,response3disk_5,4,4,4.31563,2,-1,1,0,0,rectangle_8,2,-1,1,0,0,,,7,2,-1,1,0,0,,0,3,3,5,1,,,,,,,,,,,,,,,,,,,,,,,,,,,,,,,,,,,,,,,,,,,,,,,,,,,,,,,,,
,,,,,,,,,,,,,,,,,,,,,,,,,,,,,,,,,,,,,,,,,,,5eea256b9e506b0d09822cdc,5ff3a4a9cb7697a1f315237d,2021-01-04_23h28.57.048,Colour_Similarity_Experiment_v1,2020.1.2,Win32,60,5ff3a352adaa099f7659f8cc,,,,,,,,,,,,,,,,,,,7,PF,-98,-44,1,0,0,response5disk_5,6,2,3.56095,-14,3,1,0,0,rectangle_8,-14,3,1,0,0,,,7,-14,3,1,0,0,,0,4,4,4,1,,,,,,,,,,,,,,,,,,,,,,,,,,,,,,,,,,,,,,,,,,,,,,,,,,,,,,,,,
,,,,,,,,,,,,,,,,,,,,,,,,,,,,,,,,,,,,,,,,,,,5eea256b9e506b0d09822cdc,5ff3a4a9cb7697a1f315237d,2021-01-04_23h28.57.048,Colour_Similarity_Experiment_v1,2020.1.2,Win32,60,5ff3a352adaa099f7659f8cc,,,,,,,,,,,,,,,,,,,1,PF,71,24,1,0,0,response1disk_5,8,6,4.555185,15,4,1,0,0,rectangle_8,32,72,1,0,0,response1disk_7,7,7,-18,-6,1,0,0,rectangle_4,0,5,5,1,1,,,,,,,,,,,,,,,,,,,,,,,,,,,,,,,,,,,,,,,,,,,,,,,,,,,,,,,,,
,,,,,,,,,,,,,,,,,,,,,,,,,,,,,,,,,,,,,,,,,,,5eea256b9e506b0d09822cdc,5ff3a4a9cb7697a1f315237d,2021-01-04_23h28.57.048,Colour_Similarity_Experiment_v1,2020.1.2,Win32,60,5ff3a352adaa099f7659f8cc,,,,,,,,,,,,,,,,,,,7,FF,-41,74,1,0,0,response7disk_5,7,0,3.23745,-9,-3,1,0,0,rectangle_8,-9,-3,1,0,0,,,7,-9,-3,1,0,0,,0,6,6,3,1,,,,,,,,,,,,,,,,,,,,,,,,,,,,,,,,,,,,,,,,,,,,,,,,,,,,,,,,,
,,,,,,,,,,,,,,,,,,,,,,,,,,,,,,,,,,,,,,,,,,,5eea256b9e506b0d09822cdc,5ff3a4a9cb7697a1f315237d,2021-01-04_23h28.57.048,Colour_Similarity_Experiment_v1,2020.1.2,Win32,60,5ff3a352adaa099f7659f8cc,,,,,,,,,,,,,,,,,,,,FF,,,,,,,,6,3.60851,,,,,,,,,,,,,,,,,,,,,,,,,,space,9.49438,7,75,32,1,0,0,response1disk,4,1,-3,-3,1,0,0,rectangle,-3,-3,1,0,0,,5,0,0.00512,-3,-3,1,0,0,0,0,0,158,1,,,,,,,,,,,,,,,,,,,,,
,,,,,,,,,,,,,,,,,,,,,,,,,,,,,,,,,,,,,,,,,,,5eea256b9e506b0d09822cdc,5ff3a4a9cb7697a1f315237d,2021-01-04_23h28.57.048,Colour_Similarity_Experiment_v1,2020.1.2,Win32,60,5ff3a352adaa099f7659f8cc,,,,,,,,,,,,,,,,,,,,PF,,,,,,,,1,3.44548,,,,,,,,,,,,,,,,,,,,,,,,,,,,9,-85,47,1,0,0,response7disk,9,2,-19,6,1,0,0,rectangle,-19,6,1,0,0,,1,0,0.00232,-19,6,1,0,0,0,1,1,106,1,,,,,,,,,,,,,,,,,,,,,
,,,,,,,,,,,,,,,,,,,,,,,,,,,,,,,,,,,,,,,,,,,5eea256b9e506b0d09822cdc,5ff3a4a9cb7697a1f315237d,2021-01-04_23h28.57.048,Colour_Similarity_Experiment_v1,2020.1.2,Win32,60,5ff3a352adaa099f7659f8cc,,,,,,,,,,,,,,,,,,,,FF,,,,,,,,7,4.03644,,,,,,,,,,,,,,,,,,,,,,,,,,,,8,58,108,1,0,0,response1disk,2,3,-2,1,1,0,0,rectangle,-2,1,1,0,0,,5,0,0.003205,-2,1,1,0,0,0,2,2,22,1,,,,,,,,,,,,,,,,,,,,,
,,,,,,,,,,,,,,,,,,,,,,,,,,,,,,,,,,,,,,,,,,,5eea256b9e506b0d09822cdc,5ff3a4a9cb7697a1f315237d,2021-01-04_23h28.57.048,Colour_Similarity_Experiment_v1,2020.1.2,Win32,60,5ff3a352adaa099f7659f8cc,,,,,,,,,,,,,,,,,,,,FF,,,,,,,,7,2.642945,,,,,,,,,,,,,,,,,,,,,,,,,,,,2,43,83,1,0,0,response1disk,5,4,-6,-6,1,0,0,rectangle,-6,-6,1,0,0,,7,0,0.00186,-6,-6,1,0,0,0,3,3,80,1,,,,,,,,,,,,,,,,,,,,,
,,,,,,,,,,,,,,,,,,,,,,,,,,,,,,,,,,,,,,,,,,,5eea256b9e506b0d09822cdc,5ff3a4a9cb7697a1f315237d,2021-01-04_23h28.57.048,Colour_Similarity_Experiment_v1,2020.1.2,Win32,60,5ff3a352adaa099f7659f8cc,,,,,,,,,,,,,,,,,,,,PF,,,,,,,,6,2.832165,,,,,,,,,,,,,,,,,,,,,,,,,,,,4,97,43,1,0,0,response1disk,2,5,9,-1,1,0,0,rectangle,9,-1,1,0,0,,5,0,0.0022,9,-1,1,0,0,0,4,4,108,1,,,,,,,,,,,,,,,,,,,,,
,,,,,,,,,,,,,,,,,,,,,,,,,,,,,,,,,,,,,,,,,,,5eea256b9e506b0d09822cdc,5ff3a4a9cb7697a1f315237d,2021-01-04_23h28.57.048,Colour_Similarity_Experiment_v1,2020.1.2,Win32,60,5ff3a352adaa099f7659f8cc,,,,,,,,,,,,,,,,,,,,PF,,,,,,,,7,2.51785,,,,,,,,,,,,,,,,,,,,,,,,,,,,2,48,103,1,0,0,response1disk,1,6,-6,0,1,0,0,rectangle,-6,0,1,0,0,,5,0,0.00192,-6,0,1,0,0,0,5,5,9,1,,,,,,,,,,,,,,,,,,,,,
,,,,,,,,,,,,,,,,,,,,,,,,,,,,,,,,,,,,,,,,,,,5eea256b9e506b0d09822cdc,5ff3a4a9cb7697a1f315237d,2021-01-04_23h28.57.048,Colour_Similarity_Experiment_v1,2020.1.2,Win32,60,5ff3a352adaa099f7659f8cc,,,,,,,,,,,,,,,,,,,,FF,,,,,,,,7,1.956175,,,,,,,,,,,,,,,,,,,,,,,,,,,,4,39,82,1,0,0,response1disk,8,7,-9,4,0,0,1,rectangle,-9,4,0,0,1,,4,0,0.00228,-9,4,0,0,1,0,6,6,35,1,,,,,,,,,,,,,,,,,,,,,
,,,,,,,,,,,,,,,,,,,,,,,,,,,,,,,,,,,,,,,,,,,5eea256b9e506b0d09822cdc,5ff3a4a9cb7697a1f315237d,2021-01-04_23h28.57.048,Colour_Similarity_Experiment_v1,2020.1.2,Win32,60,5ff3a352adaa099f7659f8cc,,,,,,,,,,,,,,,,,,,,PF,,,,,,,,0,4.684995,,,,,,,,,,,,,,,,,,,,,,,,,,,,2,-52,96,1,0,0,response7disk,2,8,-19,0,1,0,0,rectangle,-19,0,1,0,0,,2,0,0.06292,-19,0,1,0,0,0,7,7,14,1,,,,,,,,,,,,,,,,,,,,,
,,,,,,,,,,,,,,,,,,,,,,,,,,,,,,,,,,,,,,,,,,,5eea256b9e506b0d09822cdc,5ff3a4a9cb7697a1f315237d,2021-01-04_23h28.57.048,Colour_Similarity_Experiment_v1,2020.1.2,Win32,60,5ff3a352adaa099f7659f8cc,,,,,,,,,,,,,,,,,,,,FF,,,,,,,,2,2.87839,,,,,,,,,,,,,,,,,,,,,,,,,,,,9,-80,-40,1,0,0,response5disk,8,9,-25,-4,1,0,0,rectangle,-25,-4,1,0,0,,5,0,0.00213,-25,-4,1,0,0,0,8,8,6,1,,,,,,,,,,,,,,,,,,,,,
,,,,,,,,,,,,,,,,,,,,,,,,,,,,,,,,,,,,,,,,,,,5eea256b9e506b0d09822cdc,5ff3a4a9cb7697a1f315237d,2021-01-04_23h28.57.048,Colour_Similarity_Experiment_v1,2020.1.2,Win32,60,5ff3a352adaa099f7659f8cc,,,,,,,,,,,,,,,,,,,,PF,,,,,,,,2,2.706795,,,,,,,,,,,,,,,,,,,,,,,,,,,,7,-94,-50,1,0,0,response5disk,6,10,4,8,0,0,1,rectangle,4,8,0,0,1,,0,0,0.002365,4,8,0,0,1,0,9,9,29,1,,,,,,,,,,,,,,,,,,,,,
,,,,,,,,,,,,,,,,,,,,,,,,,,,,,,,,,,,,,,,,,,,5eea256b9e506b0d09822cdc,5ff3a4a9cb7697a1f315237d,2021-01-04_23h28.57.048,Colour_Similarity_Experiment_v1,2020.1.2,Win32,60,5ff3a352adaa099f7659f8cc,,,,,,,,,,,,,,,,,,,,FF,,,,,,,,1,2.165095,,,,,,,,,,,,,,,,,,,,,,,,,,,,5,-72,53,1,0,0,response7disk,6,11,0,1,1,0,0,rectangle,0,1,1,0,0,,3,0,0.01484,0,1,1,0,0,0,10,10,12,1,,,,,,,,,,,,,,,,,,,,,
,,,,,,,,,,,,,,,,,,,,,,,,,,,,,,,,,,,,,,,,,,,5eea256b9e506b0d09822cdc,5ff3a4a9cb7697a1f315237d,2021-01-04_23h28.57.048,Colour_Similarity_Experiment_v1,2020.1.2,Win32,60,5ff3a352adaa099f7659f8cc,,,,,,,,,,,,,,,,,,,,FF,,,,,,,,5,8.43663,,,,,,,,,,,,,,,,,,,,,,,,,,,,2,57,-31,1,0,0,response3disk,4,12,9,6,1,0,0,rectangle,9,6,1,0,0,,2,0,0.00383,9,6,1,0,0,0,11,11,145,1,,,,,,,,,,,,,,,,,,,,,
,,,,,,,,,,,,,,,,,,,,,,,,,,,,,,,,,,,,,,,,,,,5eea256b9e506b0d09822cdc,5ff3a4a9cb7697a1f315237d,2021-01-04_23h28.57.048,Colour_Similarity_Experiment_v1,2020.1.2,Win32,60,5ff3a352adaa099f7659f8cc,,,,,,,,,,,,,,,,,,,,FF,,,,,,,,7,3.07383,,,,,,,,,,,,,,,,,,,,,,,,,,,,3,35,75,1,0,0,response1disk,6,13,-9,1,1,0,0,rectangle,-9,1,1,0,0,,2,0,0.003425,-9,1,1,0,0,0,12,12,95,1,,,,,,,,,,,,,,,,,,,,,
,,,,,,,,,,,,,,,,,,,,,,,,,,,,,,,,,,,,,,,,,,,5eea256b9e506b0d09822cdc,5ff3a4a9cb7697a1f315237d,2021-01-04_23h28.57.048,Colour_Similarity_Experiment_v1,2020.1.2,Win32,60,5ff3a352adaa099f7659f8cc,,,,,,,,,,,,,,,,,,,,FF,,,,,,,,6,3.34459,,,,,,,,,,,,,,,,,,,,,,,,,,,,7,75,27,0,0,1,response1disk,9,14,14,2,1,0,0,rectangle,14,2,1,0,0,,6,0,0.002115,14,2,1,0,0,0,13,13,155,1,,,,,,,,,,,,,,,,,,,,,
,,,,,,,,,,,,,,,,,,,,,,,,,,,,,,,,,,,,,,,,,,,5eea256b9e506b0d09822cdc,5ff3a4a9cb7697a1f315237d,2021-01-04_23h28.57.048,Colour_Similarity_Experiment_v1,2020.1.2,Win32,60,5ff3a352adaa099f7659f8cc,,,,,,,,,,,,,,,,,,,,PF,,,,,,,,6,4.12946,,,,,,,,,,,,,,,,,,,,,,,,,,,,7,73,35,1,0,0,response1disk,9,15,9,3,1,0,0,rectangle,9,3,1,0,0,,1,0,0.001805,9,3,1,0,0,0,14,14,10,1,,,,,,,,,,,,,,,,,,,,,
,,,,,,,,,,,,,,,,,,,,,,,,,,,,,,,,,,,,,,,,,,,5eea256b9e506b0d09822cdc,5ff3a4a9cb7697a1f315237d,2021-01-04_23h28.57.048,Colour_Similarity_Experiment_v1,2020.1.2,Win32,60,5ff3a352adaa099f7659f8cc,,,,,,,,,,,,,,,,,,,,FF,,,,,,,,2,2.63121,,,,,,,,,,,,,,,,,,,,,,,,,,,,4,-81,-56,1,0,0,response5disk,3,16,-15,-4,1,0,0,rectangle,-15,-4,1,0,0,,4,0,0.001875,-15,-4,1,0,0,0,15,15,77,1,,,,,,,,,,,,,,,,,,,,,
,,,,,,,,,,,,,,,,,,,,,,,,,,,,,,,,,,,,,,,,,,,5eea256b9e506b0d09822cdc,5ff3a4a9cb7697a1f315237d,2021-01-04_23h28.57.048,Colour_Similarity_Experiment_v1,2020.1.2,Win32,60,5ff3a352adaa099f7659f8cc,,,,,,,,,,,,,,,,,,,,FF,,,,,,,,7,3.27841,,,,,,,,,,,,,,,,,,,,,,,,,,,,1,48,72,1,0,0,response1disk,7,17,7,-6,1,0,0,rectangle,7,-6,1,0,0,,5,0,0.08402,7,-6,1,0,0,0,16,16,137,1,,,,,,,,,,,,,,,,,,,,,
,,,,,,,,,,,,,,,,,,,,,,,,,,,,,,,,,,,,,,,,,,,5eea256b9e506b0d09822cdc,5ff3a4a9cb7697a1f315237d,2021-01-04_23h28.57.048,Colour_Similarity_Experiment_v1,2020.1.2,Win32,60,5ff3a352adaa099f7659f8cc,,,,,,,,,,,,,,,,,,,,FF,,,,,,,,7,2.57213,,,,,,,,,,,,,,,,,,,,,,,,,,,,9,46,97,1,0,0,response1disk,6,18,-13,-1,1,0,0,rectangle,-13,-1,1,0,0,,4,0,0.00186,-13,-1,1,0,0,0,17,17,117,1,,,,,,,,,,,,,,,,,,,,,
,,,,,,,,,,,,,,,,,,,,,,,,,,,,,,,,,,,,,,,,,,,5eea256b9e506b0d09822cdc,5ff3a4a9cb7697a1f315237d,2021-01-04_23h28.57.048,Colour_Similarity_Experiment_v1,2020.1.2,Win32,60,5ff3a352adaa099f7659f8cc,,,,,,,,,,,,,,,,,,,,PF,,,,,,,,2,5.969065,,,,,,,,,,,,,,,,,,,,,,,,,,,,8,-83,-30,1,0,0,response5disk,9,19,-8,3,1,0,0,rectangle,-8,3,1,0,0,,1,0,0.00201,-8,3,1,0,0,0,18,18,42,1,,,,,,,,,,,,,,,,,,,,,
,,,,,,,,,,,,,,,,,,,,,,,,,,,,,,,,,,,,,,,,,,,5eea256b9e506b0d09822cdc,5ff3a4a9cb7697a1f315237d,2021-01-04_23h28.57.048,Colour_Similarity_Experiment_v1,2020.1.2,Win32,60,5ff3a352adaa099f7659f8cc,,,,,,,,,,,,,,,,,,,,FF,,,,,,,,7,2.15983,,,,,,,,,,,,,,,,,,,,,,,,,,,,9,28,105,1,0,0,response1disk,5,20,-8,3,1,0,0,rectangle,-8,3,1,0,0,,1,0,0.001825,-8,3,1,0,0,0,19,19,128,1,,,,,,,,,,,,,,,,,,,,,
,,,,,,,,,,,,,,,,,,,,,,,,,,,,,,,,,,,,,,,,,,,5eea256b9e506b0d09822cdc,5ff3a4a9cb7697a1f315237d,2021-01-04_23h28.57.048,Colour_Similarity_Experiment_v1,2020.1.2,Win32,60,5ff3a352adaa099f7659f8cc,,,,,,,,,,,,,,,,,,,,PF,,,,,,,,3,2.630595,,,,,,,,,,,,,,,,,,,,,,,,,,,,6,-50,-85,1,0,0,response5disk,7,21,-8,2,1,0,0,rectangle,-8,2,1,0,0,,7,0,0.00202,-8,2,1,0,0,0,20,20,50,1,,,,,,,,,,,,,,,,,,,,,
,,,,,,,,,,,,,,,,,,,,,,,,,,,,,,,,,,,,,,,,,,,5eea256b9e506b0d09822cdc,5ff3a4a9cb7697a1f315237d,2021-01-04_23h28.57.048,Colour_Similarity_Experiment_v1,2020.1.2,Win32,60,5ff3a352adaa099f7659f8cc,,,,,,,,,,,,,,,,,,,,FF,,,,,,,,6,5.54064,,,,,,,,,,,,,,,,,,,,,,,,,,,,8,62,33,1,0,0,response1disk,3,22,16,-1,1,0,0,rectangle,16,-1,1,0,0,,3,0,0.002055,16,-1,1,0,0,0,21,21,154,1,,,,,,,,,,,,,,,,,,,,,
,,,,,,,,,,,,,,,,,,,,,,,,,,,,,,,,,,,,,,,,,,,5eea256b9e506b0d09822cdc,5ff3a4a9cb7697a1f315237d,2021-01-04_23h28.57.048,Colour_Similarity_Experiment_v1,2020.1.2,Win32,60,5ff3a352adaa099f7659f8cc,,,,,,,,,,,,,,,,,,,,PF,,,,,,,,2,2.648395,,,,,,,,,,,,,,,,,,,,,,,,,,,,3,-88,-60,1,0,0,response5disk,4,23,-9,-2,1,0,0,rectangle,-9,-2,1,0,0,,7,0,0.00195,-9,-2,1,0,0,0,22,22,30,1,,,,,,,,,,,,,,,,,,,,,
,,,,,,,,,,,,,,,,,,,,,,,,,,,,,,,,,,,,,,,,,,,5eea256b9e506b0d09822cdc,5ff3a4a9cb7697a1f315237d,2021-01-04_23h28.57.048,Colour_Similarity_Experiment_v1,2020.1.2,Win32,60,5ff3a352adaa099f7659f8cc,,,,,,,,,,,,,,,,,,,,FF,,,,,,,,5,2.63145,,,,,,,,,,,,,,,,,,,,,,,,,,,,4,75,-31,1,0,0,response3disk,7,24,-2,2,1,0,0,rectangle,-2,2,1,0,0,,5,0,0.001945,-2,2,1,0,0,0,23,23,87,1,,,,,,,,,,,,,,,,,,,,,
,,,,,,,,,,,,,,,,,,,,,,,,,,,,,,,,,,,,,,,,,,,5eea256b9e506b0d09822cdc,5ff3a4a9cb7697a1f315237d,2021-01-04_23h28.57.048,Colour_Similarity_Experiment_v1,2020.1.2,Win32,60,5ff3a352adaa099f7659f8cc,,,,,,,,,,,,,,,,,,,,PF,,,,,,,,6,3.243645,,,,,,,,,,,,,,,,,,,,,,,,,,,,6,73,33,1,0,0,response1disk,3,25,4,11,1,0,0,rectangle,4,11,1,0,0,,1,0,0.001905,4,11,1,0,0,0,24,24,26,1,,,,,,,,,,,,,,,,,,,,,
,,,,,,,,,,,,,,,,,,,,,,,,,,,,,,,,,,,,,,,,,,,5eea256b9e506b0d09822cdc,5ff3a4a9cb7697a1f315237d,2021-01-04_23h28.57.048,Colour_Similarity_Experiment_v1,2020.1.2,Win32,60,5ff3a352adaa099f7659f8cc,,,,,,,,,,,,,,,,,,,,FF,,,,,,,,4,2.677685,,,,,,,,,,,,,,,,,,,,,,,,,,,,6,27,-65,1,0,0,response3disk,4,26,3,3,1,0,0,rectangle,3,3,1,0,0,,4,0,0.003395,3,3,1,0,0,0,25,25,56,1,,,,,,,,,,,,,,,,,,,,,
,,,,,,,,,,,,,,,,,,,,,,,,,,,,,,,,,,,,,,,,,,,5eea256b9e506b0d09822cdc,5ff3a4a9cb7697a1f315237d,2021-01-04_23h28.57.048,Colour_Similarity_Experiment_v1,2020.1.2,Win32,60,5ff3a352adaa099f7659f8cc,,,,,,,,,,,,,,,,,,,,PF,,,,,,,,0,2.836165,,,,,,,,,,,,,,,,,,,,,,,,,,,,5,-59,98,1,0,0,response7disk,5,27,-5,14,1,0,0,rectangle,-5,14,1,0,0,,2,0,0.00192,-5,14,1,0,0,0,26,26,94,1,,,,,,,,,,,,,,,,,,,,,
,,,,,,,,,,,,,,,,,,,,,,,,,,,,,,,,,,,,,,,,,,,5eea256b9e506b0d09822cdc,5ff3a4a9cb7697a1f315237d,2021-01-04_23h28.57.048,Colour_Similarity_Experiment_v1,2020.1.2,Win32,60,5ff3a352adaa099f7659f8cc,,,,,,,,,,,,,,,,,,,,FF,,,,,,,,7,2.772495,,,,,,,,,,,,,,,,,,,,,,,,,,,,2,47,83,1,0,0,response1disk,7,28,0,0,1,0,0,rectangle,0,0,1,0,0,,1,0,0.00206,0,0,1,0,0,0,27,27,63,1,,,,,,,,,,,,,,,,,,,,,
,,,,,,,,,,,,,,,,,,,,,,,,,,,,,,,,,,,,,,,,,,,5eea256b9e506b0d09822cdc,5ff3a4a9cb7697a1f315237d,2021-01-04_23h28.57.048,Colour_Similarity_Experiment_v1,2020.1.2,Win32,60,5ff3a352adaa099f7659f8cc,,,,,,,,,,,,,,,,,,,,FF,,,,,,,,7,2.83982,,,,,,,,,,,,,,,,,,,,,,,,,,,,1,38,81,1,0,0,response1disk,3,29,-2,0,1,0,0,rectangle,-2,0,1,0,0,,7,0,0.00232,-2,0,1,0,0,0,28,28,99,1,,,,,,,,,,,,,,,,,,,,,
,,,,,,,,,,,,,,,,,,,,,,,,,,,,,,,,,,,,,,,,,,,5eea256b9e506b0d09822cdc,5ff3a4a9cb7697a1f315237d,2021-01-04_23h28.57.048,Colour_Similarity_Experiment_v1,2020.1.2,Win32,60,5ff3a352adaa099f7659f8cc,,,,,,,,,,,,,,,,,,,,FF,,,,,,,,1,2.724305,,,,,,,,,,,,,,,,,,,,,,,,,,,,3,-99,32,1,0,0,response7disk,3,30,-11,6,1,0,0,rectangle,-11,6,1,0,0,,2,0,0.00303,-11,6,1,0,0,0,29,29,68,1,,,,,,,,,,,,,,,,,,,,,
,,,,,,,,,,,,,,,,,,,,,,,,,,,,,,,,,,,,,,,,,,,5eea256b9e506b0d09822cdc,5ff3a4a9cb7697a1f315237d,2021-01-04_23h28.57.048,Colour_Similarity_Experiment_v1,2020.1.2,Win32,60,5ff3a352adaa099f7659f8cc,,,,,,,,,,,,,,,,,,,,FF,,,,,,,,7,2.17168,,,,,,,,,,,,,,,,,,,,,,,,,,,,5,59,104,1,0,0,response1disk,9,31,-5,12,1,0,0,rectangle,-5,12,1,0,0,,7,0,0.00251,-5,12,1,0,0,0,30,30,61,1,,,,,,,,,,,,,,,,,,,,,
,,,,,,,,,,,,,,,,,,,,,,,,,,,,,,,,,,,,,,,,,,,5eea256b9e506b0d09822cdc,5ff3a4a9cb7697a1f315237d,2021-01-04_23h28.57.048,Colour_Similarity_Experiment_v1,2020.1.2,Win32,60,5ff3a352adaa099f7659f8cc,,,,,,,,,,,,,,,,,,,,PF,,,,,,,,7,2.139695,,,,,,,,,,,,,,,,,,,,,,,,,,,,2,49,78,1,0,0,response1disk,5,32,3,10,1,0,0,rectangle,3,10,1,0,0,,3,0,0.0035,3,10,1,0,0,0,31,31,147,1,,,,,,,,,,,,,,,,,,,,,
,,,,,,,,,,,,,,,,,,,,,,,,,,,,,,,,,,,,,,,,,,,5eea256b9e506b0d09822cdc,5ff3a4a9cb7697a1f315237d,2021-01-04_23h28.57.048,Colour_Similarity_Experiment_v1,2020.1.2,Win32,60,5ff3a352adaa099f7659f8cc,,,,,,,,,,,,,,,,,,,,FF,,,,,,,,3,7.06105,,,,,,,,,,,,,,,,,,,,,,,,,,,,5,-50,-80,1,0,0,response5disk,4,33,-3,2,1,0,0,rectangle,-3,2,1,0,0,,2,0,0.00226,-3,2,1,0,0,0,32,32,8,1,,,,,,,,,,,,,,,,,,,,,
,,,,,,,,,,,,,,,,,,,,,,,,,,,,,,,,,,,,,,,,,,,5eea256b9e506b0d09822cdc,5ff3a4a9cb7697a1f315237d,2021-01-04_23h28.57.048,Colour_Similarity_Experiment_v1,2020.1.2,Win32,60,5ff3a352adaa099f7659f8cc,,,,,,,,,,,,,,,,,,,,PF,,,,,,,,7,2.205555,,,,,,,,,,,,,,,,,,,,,,,,,,,,4,29,88,1,0,0,response1disk,7,34,-7,6,1,0,0,rectangle,-7,6,1,0,0,,2,0,0.002075,-7,6,1,0,0,0,33,33,38,1,,,,,,,,,,,,,,,,,,,,,
,,,,,,,,,,,,,,,,,,,,,,,,,,,,,,,,,,,,,,,,,,,5eea256b9e506b0d09822cdc,5ff3a4a9cb7697a1f315237d,2021-01-04_23h28.57.048,Colour_Similarity_Experiment_v1,2020.1.2,Win32,60,5ff3a352adaa099f7659f8cc,,,,,,,,,,,,,,,,,,,,PF,,,,,,,,4,3.358955,,,,,,,,,,,,,,,,,,,,,,,,,,,,6,39,-50,1,0,0,response3disk,8,35,12,-2,1,0,0,rectangle,12,-2,1,0,0,,7,0,0.001945,12,-2,1,0,0,0,34,34,64,1,,,,,,,,,,,,,,,,,,,,,
,,,,,,,,,,,,,,,,,,,,,,,,,,,,,,,,,,,,,,,,,,,5eea256b9e506b0d09822cdc,5ff3a4a9cb7697a1f315237d,2021-01-04_23h28.57.048,Colour_Similarity_Experiment_v1,2020.1.2,Win32,60,5ff3a352adaa099f7659f8cc,,,,,,,,,,,,,,,,,,,,FF,,,,,,,,7,2.179115,,,,,,,,,,,,,,,,,,,,,,,,,,,,3,29,83,1,0,0,response1disk,1,36,-2,4,1,0,0,rectangle,-2,4,1,0,0,,1,0,0.002005,-2,4,1,0,0,0,35,35,125,1,,,,,,,,,,,,,,,,,,,,,
,,,,,,,,,,,,,,,,,,,,,,,,,,,,,,,,,,,,,,,,,,,5eea256b9e506b0d09822cdc,5ff3a4a9cb7697a1f315237d,2021-01-04_23h28.57.048,Colour_Similarity_Experiment_v1,2020.1.2,Win32,60,5ff3a352adaa099f7659f8cc,,,,,,,,,,,,,,,,,,,,PF,,,,,,,,7,4.033595,,,,,,,,,,,,,,,,,,,,,,,,,,,,2,42,109,1,0,0,response1disk,9,37,11,8,1,0,0,rectangle,11,8,1,0,0,,3,0,0.001985,11,8,1,0,0,0,36,36,39,1,,,,,,,,,,,,,,,,,,,,,
,,,,,,,,,,,,,,,,,,,,,,,,,,,,,,,,,,,,,,,,,,,5eea256b9e506b0d09822cdc,5ff3a4a9cb7697a1f315237d,2021-01-04_23h28.57.048,Colour_Similarity_Experiment_v1,2020.1.2,Win32,60,5ff3a352adaa099f7659f8cc,,,,,,,,,,,,,,,,,,,,FF,,,,,,,,3,2.610455,,,,,,,,,,,,,,,,,,,,,,,,,,,,5,-37,-76,1,0,0,response5disk,7,38,-16,-1,1,0,0,rectangle,-16,-1,1,0,0,,1,0,0.001945,-16,-1,1,0,0,0,37,37,7,1,,,,,,,,,,,,,,,,,,,,,
,,,,,,,,,,,,,,,,,,,,,,,,,,,,,,,,,,,,,,,,,,,5eea256b9e506b0d09822cdc,5ff3a4a9cb7697a1f315237d,2021-01-04_23h28.57.048,Colour_Similarity_Experiment_v1,2020.1.2,Win32,60,5ff3a352adaa099f7659f8cc,,,,,,,,,,,,,,,,,,,,PF,,,,,,,,7,6.08662,,,,,,,,,,,,,,,,,,,,,,,,,,,,9,25,83,1,0,0,response1disk,2,39,-4,-1,1,0,0,rectangle,-4,-1,1,0,0,,2,0,0.00238,-4,-1,1,0,0,0,38,38,157,1,,,,,,,,,,,,,,,,,,,,,
,,,,,,,,,,,,,,,,,,,,,,,,,,,,,,,,,,,,,,,,,,,5eea256b9e506b0d09822cdc,5ff3a4a9cb7697a1f315237d,2021-01-04_23h28.57.048,Colour_Similarity_Experiment_v1,2020.1.2,Win32,60,5ff3a352adaa099f7659f8cc,,,,,,,,,,,,,,,,,,,,PF,,,,,,,,7,2.066915,,,,,,,,,,,,,,,,,,,,,,,,,,,,1,54,89,1,0,0,response1disk,4,40,3,3,1,0,0,rectangle,3,3,1,0,0,,0,0,0.002885,3,3,1,0,0,0,39,39,139,1,,,,,,,,,,,,,,,,,,,,,
,,,,,,,,,,,,,,,,,,,,,,,,,,,,,,,,,,,,,,,,,,,5eea256b9e506b0d09822cdc,5ff3a4a9cb7697a1f315237d,2021-01-04_23h28.57.048,Colour_Similarity_Experiment_v1,2020.1.2,Win32,60,5ff3a352adaa099f7659f8cc,,,,,,,,,,,,,,,,,,,,PF,,,,,,,,7,3.909645,,,,,,,,,,,,,,,,,,,,,,,,,,,,3,39,90,1,0,0,response1disk,7,41,-8,-6,1,0,0,rectangle,-8,-6,1,0,0,,3,0,0.0023,-8,-6,1,0,0,0,40,40,41,1,,,,,,,,,,,,,,,,,,,,,
,,,,,,,,,,,,,,,,,,,,,,,,,,,,,,,,,,,,,,,,,,,5eea256b9e506b0d09822cdc,5ff3a4a9cb7697a1f315237d,2021-01-04_23h28.57.048,Colour_Similarity_Experiment_v1,2020.1.2,Win32,60,5ff3a352adaa099f7659f8cc,,,,,,,,,,,,,,,,,,,,PF,,,,,,,,3,2.70889,,,,,,,,,,,,,,,,,,,,,,,,,,,,5,-35,-79,1,0,0,response5disk,4,42,-5,-1,1,0,0,rectangle,-5,-1,1,0,0,,2,0,0.03627,-5,-1,1,0,0,0,41,41,54,1,,,,,,,,,,,,,,,,,,,,,
,,,,,,,,,,,,,,,,,,,,,,,,,,,,,,,,,,,,,,,,,,,5eea256b9e506b0d09822cdc,5ff3a4a9cb7697a1f315237d,2021-01-04_23h28.57.048,Colour_Similarity_Experiment_v1,2020.1.2,Win32,60,5ff3a352adaa099f7659f8cc,,,,,,,,,,,,,,,,,,,,PF,,,,,,,,5,2.92984,,,,,,,,,,,,,,,,,,,,,,,,,,,,8,64,-36,1,0,0,response3disk,5,43,14,7,1,0,0,rectangle,14,7,1,0,0,,1,0,0.002075,14,7,1,0,0,0,42,42,98,1,,,,,,,,,,,,,,,,,,,,,
,,,,,,,,,,,,,,,,,,,,,,,,,,,,,,,,,,,,,,,,,,,5eea256b9e506b0d09822cdc,5ff3a4a9cb7697a1f315237d,2021-01-04_23h28.57.048,Colour_Similarity_Experiment_v1,2020.1.2,Win32,60,5ff3a352adaa099f7659f8cc,,,,,,,,,,,,,,,,,,,,FF,,,,,,,,2,2.736015,,,,,,,,,,,,,,,,,,,,,,,,,,,,6,-93,-52,1,0,0,response5disk,5,44,-12,0,1,0,0,rectangle,-12,0,1,0,0,,3,0,0.002555,-12,0,1,0,0,0,43,43,126,1,,,,,,,,,,,,,,,,,,,,,
,,,,,,,,,,,,,,,,,,,,,,,,,,,,,,,,,,,,,,,,,,,5eea256b9e506b0d09822cdc,5ff3a4a9cb7697a1f315237d,2021-01-04_23h28.57.048,Colour_Similarity_Experiment_v1,2020.1.2,Win32,60,5ff3a352adaa099f7659f8cc,,,,,,,,,,,,,,,,,,,,PF,,,,,,,,3,2.23545,,,,,,,,,,,,,,,,,,,,,,,,,,,,5,-45,-63,1,0,0,response5disk,3,45,-4,13,1,0,0,rectangle,-4,13,1,0,0,,6,0,0.002635,-4,13,1,0,0,0,44,44,109,1,,,,,,,,,,,,,,,,,,,,,
,,,,,,,,,,,,,,,,,,,,,,,,,,,,,,,,,,,,,,,,,,,5eea256b9e506b0d09822cdc,5ff3a4a9cb7697a1f315237d,2021-01-04_23h28.57.048,Colour_Similarity_Experiment_v1,2020.1.2,Win32,60,5ff3a352adaa099f7659f8cc,,,,,,,,,,,,,,,,,,,,PF,,,,,,,,7,2.698515,,,,,,,,,,,,,,,,,,,,,,,,,,,,8,55,83,1,0,0,response1disk,2,46,-6,2,1,0,0,rectangle,-6,2,1,0,0,,2,0,0.002285,-6,2,1,0,0,0,45,45,83,1,,,,,,,,,,,,,,,,,,,,,
,,,,,,,,,,,,,,,,,,,,,,,,,,,,,,,,,,,,,,,,,,,5eea256b9e506b0d09822cdc,5ff3a4a9cb7697a1f315237d,2021-01-04_23h28.57.048,Colour_Similarity_Experiment_v1,2020.1.2,Win32,60,5ff3a352adaa099f7659f8cc,,,,,,,,,,,,,,,,,,,,FF,,,,,,,,6,2.89692,,,,,,,,,,,,,,,,,,,,,,,,,,,,9,101,35,1,0,0,response1disk,7,47,-7,-2,1,0,0,rectangle,-7,-2,1,0,0,,3,0,0.0023,-7,-2,1,0,0,0,46,46,100,1,,,,,,,,,,,,,,,,,,,,,
,,,,,,,,,,,,,,,,,,,,,,,,,,,,,,,,,,,,,,,,,,,5eea256b9e506b0d09822cdc,5ff3a4a9cb7697a1f315237d,2021-01-04_23h28.57.048,Colour_Similarity_Experiment_v1,2020.1.2,Win32,60,5ff3a352adaa099f7659f8cc,,,,,,,,,,,,,,,,,,,,PF,,,,,,,,3,4.544505,,,,,,,,,,,,,,,,,,,,,,,,,,,,9,-47,-73,1,0,0,response5disk,8,48,7,8,1,0,0,rectangle,7,8,1,0,0,,0,0,0.002655,7,8,1,0,0,0,47,47,67,1,,,,,,,,,,,,,,,,,,,,,
,,,,,,,,,,,,,,,,,,,,,,,,,,,,,,,,,,,,,,,,,,,5eea256b9e506b0d09822cdc,5ff3a4a9cb7697a1f315237d,2021-01-04_23h28.57.048,Colour_Similarity_Experiment_v1,2020.1.2,Win32,60,5ff3a352adaa099f7659f8cc,,,,,,,,,,,,,,,,,,,,FF,,,,,,,,3,2.143305,,,,,,,,,,,,,,,,,,,,,,,,,,,,4,-53,-87,1,0,0,response5disk,6,49,-9,-2,1,0,0,rectangle,-9,-2,1,0,0,,5,0,0.001755,-9,-2,1,0,0,0,48,48,122,1,,,,,,,,,,,,,,,,,,,,,
,,,,,,,,,,,,,,,,,,,,,,,,,,,,,,,,,,,,,,,,,,,5eea256b9e506b0d09822cdc,5ff3a4a9cb7697a1f315237d,2021-01-04_23h28.57.048,Colour_Similarity_Experiment_v1,2020.1.2,Win32,60,5ff3a352adaa099f7659f8cc,,,,,,,,,,,,,,,,,,,,FF,,,,,,,,2,2.33039,,,,,,,,,,,,,,,,,,,,,,,,,,,,8,-69,-46,1,0,0,response5disk,7,50,5,3,1,0,0,rectangle,5,3,1,0,0,,0,0,0.002055,5,3,1,0,0,0,49,49,86,1,,,,,,,,,,,,,,,,,,,,,
,,,,,,,,,,,,,,,,,,,,,,,,,,,,,,,,,,,,,,,,,,,5eea256b9e506b0d09822cdc,5ff3a4a9cb7697a1f315237d,2021-01-04_23h28.57.048,Colour_Similarity_Experiment_v1,2020.1.2,Win32,60,5ff3a352adaa099f7659f8cc,,,,,,,,,,,,,,,,,,,,FF,,,,,,,,7,2.116375,,,,,,,,,,,,,,,,,,,,,,,,,,,,6,34,66,1,0,0,response1disk,1,51,-2,-4,1,0,0,rectangle,-2,-4,1,0,0,,2,0,0.001955,-2,-4,1,0,0,0,50,50,5,1,,,,,,,,,,,,,,,,,,,,,
,,,,,,,,,,,,,,,,,,,,,,,,,,,,,,,,,,,,,,,,,,,5eea256b9e506b0d09822cdc,5ff3a4a9cb7697a1f315237d,2021-01-04_23h28.57.048,Colour_Similarity_Experiment_v1,2020.1.2,Win32,60,5ff3a352adaa099f7659f8cc,,,,,,,,,,,,,,,,,,,,FF,,,,,,,,4,2.708885,,,,,,,,,,,,,,,,,,,,,,,,,,,,9,43,-88,1,0,0,response3disk,1,52,1,-2,1,0,0,rectangle,1,-2,1,0,0,,1,0,0.002175,1,-2,1,0,0,0,51,51,111,1,,,,,,,,,,,,,,,,,,,,,
,,,,,,,,,,,,,,,,,,,,,,,,,,,,,,,,,,,,,,,,,,,5eea256b9e506b0d09822cdc,5ff3a4a9cb7697a1f315237d,2021-01-04_23h28.57.048,Colour_Similarity_Experiment_v1,2020.1.2,Win32,60,5ff3a352adaa099f7659f8cc,,,,,,,,,,,,,,,,,,,,FF,,,,,,,,7,1.763965,,,,,,,,,,,,,,,,,,,,,,,,,,,,7,53,101,1,0,0,response1disk,2,53,1,3,1,0,0,rectangle,1,3,1,0,0,,7,0,0.00232,1,3,1,0,0,0,52,52,138,1,,,,,,,,,,,,,,,,,,,,,
,,,,,,,,,,,,,,,,,,,,,,,,,,,,,,,,,,,,,,,,,,,5eea256b9e506b0d09822cdc,5ff3a4a9cb7697a1f315237d,2021-01-04_23h28.57.048,Colour_Similarity_Experiment_v1,2020.1.2,Win32,60,5ff3a352adaa099f7659f8cc,,,,,,,,,,,,,,,,,,,,FF,,,,,,,,0,2.36471,,,,,,,,,,,,,,,,,,,,,,,,,,,,5,-32,96,1,0,0,response7disk,5,54,-10,-5,1,0,0,rectangle,-10,-5,1,0,0,,0,0,0.036305,-10,-5,1,0,0,0,53,53,19,1,,,,,,,,,,,,,,,,,,,,,
,,,,,,,,,,,,,,,,,,,,,,,,,,,,,,,,,,,,,,,,,,,5eea256b9e506b0d09822cdc,5ff3a4a9cb7697a1f315237d,2021-01-04_23h28.57.048,Colour_Similarity_Experiment_v1,2020.1.2,Win32,60,5ff3a352adaa099f7659f8cc,,,,,,,,,,,,,,,,,,,,PF,,,,,,,,7,1.75472,,,,,,,,,,,,,,,,,,,,,,,,,,,,9,45,77,1,0,0,response1disk,4,55,6,6,1,0,0,rectangle,6,6,1,0,0,,0,0,0.00185,6,6,1,0,0,0,54,54,114,1,,,,,,,,,,,,,,,,,,,,,
,,,,,,,,,,,,,,,,,,,,,,,,,,,,,,,,,,,,,,,,,,,5eea256b9e506b0d09822cdc,5ff3a4a9cb7697a1f315237d,2021-01-04_23h28.57.048,Colour_Similarity_Experiment_v1,2020.1.2,Win32,60,5ff3a352adaa099f7659f8cc,,,,,,,,,,,,,,,,,,,,FF,,,,,,,,7,1.76361,,,,,,,,,,,,,,,,,,,,,,,,,,,,5,44,105,1,0,0,response1disk,1,56,-2,14,1,0,0,rectangle,-2,14,1,0,0,,2,0,0.00207,-2,14,1,0,0,0,55,55,131,1,,,,,,,,,,,,,,,,,,,,,
,,,,,,,,,,,,,,,,,,,,,,,,,,,,,,,,,,,,,,,,,,,5eea256b9e506b0d09822cdc,5ff3a4a9cb7697a1f315237d,2021-01-04_23h28.57.048,Colour_Similarity_Experiment_v1,2020.1.2,Win32,60,5ff3a352adaa099f7659f8cc,,,,,,,,,,,,,,,,,,,,PF,,,,,,,,4,3.04944,,,,,,,,,,,,,,,,,,,,,,,,,,,,3,17,-73,1,0,0,response3disk,5,57,-6,-1,1,0,0,rectangle,-6,-1,1,0,0,,1,0,0.00204,-6,-1,1,0,0,0,56,56,66,1,,,,,,,,,,,,,,,,,,,,,
,,,,,,,,,,,,,,,,,,,,,,,,,,,,,,,,,,,,,,,,,,,5eea256b9e506b0d09822cdc,5ff3a4a9cb7697a1f315237d,2021-01-04_23h28.57.048,Colour_Similarity_Experiment_v1,2020.1.2,Win32,60,5ff3a352adaa099f7659f8cc,,,,,,,,,,,,,,,,,,,,FF,,,,,,,,6,2.32577,,,,,,,,,,,,,,,,,,,,,,,,,,,,5,81,36,1,0,0,response1disk,8,58,-6,-6,1,0,0,rectangle,-6,-6,1,0,0,,7,0,0.002335,-6,-6,1,0,0,0,57,57,16,1,,,,,,,,,,,,,,,,,,,,,
,,,,,,,,,,,,,,,,,,,,,,,,,,,,,,,,,,,,,,,,,,,5eea256b9e506b0d09822cdc,5ff3a4a9cb7697a1f315237d,2021-01-04_23h28.57.048,Colour_Similarity_Experiment_v1,2020.1.2,Win32,60,5ff3a352adaa099f7659f8cc,,,,,,,,,,,,,,,,,,,,PF,,,,,,,,0,1.74917,,,,,,,,,,,,,,,,,,,,,,,,,,,,1,-37,75,1,0,0,response7disk,1,59,-5,4,1,0,0,rectangle,-43,86,1,0,0,0,0,1,5.11177,9,0,1,0,0,0,58,58,76,1,response7disk_3,rectangle,,,,,,,,,,,,,,,,,,,
,,,,,,,,,,,,,,,,,,,,,,,,,,,,,,,,,,,,,,,,,,,5eea256b9e506b0d09822cdc,5ff3a4a9cb7697a1f315237d,2021-01-04_23h28.57.048,Colour_Similarity_Experiment_v1,2020.1.2,Win32,60,5ff3a352adaa099f7659f8cc,,,,,,,,,,,,,,,,,,,,PF,,,,,,,,7,3.783585,,,,,,,,,,,,,,,,,,,,,,,,,,,,5,40,97,1,0,0,response1disk,9,60,-2,-2,1,0,0,rectangle,25,64,1,0,0,7,7,1,2.91524,-1,3,1,0,0,0,59,59,136,1,response1disk_3,rectangle,,,,,,,,,,,,,,,,,,,
,,,,,,,,,,,,,,,,,,,,,,,,,,,,,,,,,,,,,,,,,,,5eea256b9e506b0d09822cdc,5ff3a4a9cb7697a1f315237d,2021-01-04_23h28.57.048,Colour_Similarity_Experiment_v1,2020.1.2,Win32,60,5ff3a352adaa099f7659f8cc,,,,,,,,,,,,,,,,,,,,FF,,,,,,,,7,2.309595,,,,,,,,,,,,,,,,,,,,,,,,,,,,1,41,70,1,0,0,response1disk,6,61,3,4,1,0,0,rectangle,3,4,1,0,0,7,2,0,0.002205,3,4,1,0,0,0,60,60,58,1,,,,,,,,,,,,,,,,,,,,,
,,,,,,,,,,,,,,,,,,,,,,,,,,,,,,,,,,,,,,,,,,,5eea256b9e506b0d09822cdc,5ff3a4a9cb7697a1f315237d,2021-01-04_23h28.57.048,Colour_Similarity_Experiment_v1,2020.1.2,Win32,60,5ff3a352adaa099f7659f8cc,,,,,,,,,,,,,,,,,,,,FF,,,,,,,,7,1.71274,,,,,,,,,,,,,,,,,,,,,,,,,,,,8,35,67,1,0,0,response1disk,1,62,1,-1,1,0,0,rectangle,1,-1,1,0,0,7,3,0,0.00198,1,-1,1,0,0,0,61,61,20,1,,,,,,,,,,,,,,,,,,,,,
,,,,,,,,,,,,,,,,,,,,,,,,,,,,,,,,,,,,,,,,,,,5eea256b9e506b0d09822cdc,5ff3a4a9cb7697a1f315237d,2021-01-04_23h28.57.048,Colour_Similarity_Experiment_v1,2020.1.2,Win32,60,5ff3a352adaa099f7659f8cc,,,,,,,,,,,,,,,,,,,,FF,,,,,,,,1,2.200755,,,,,,,,,,,,,,,,,,,,,,,,,,,,3,-68,32,1,0,0,response7disk,4,63,3,9,1,0,0,rectangle,3,9,1,0,0,7,1,0,0.002265,3,9,1,0,0,0,62,62,110,1,,,,,,,,,,,,,,,,,,,,,
,,,,,,,,,,,,,,,,,,,,,,,,,,,,,,,,,,,,,,,,,,,5eea256b9e506b0d09822cdc,5ff3a4a9cb7697a1f315237d,2021-01-04_23h28.57.048,Colour_Similarity_Experiment_v1,2020.1.2,Win32,60,5ff3a352adaa099f7659f8cc,,,,,,,,,,,,,,,,,,,,PF,,,,,,,,7,1.73371,,,,,,,,,,,,,,,,,,,,,,,,,,,,1,35,66,1,0,0,response1disk,5,64,12,-1,1,0,0,rectangle,12,-1,1,0,0,7,0,0,0.002655,12,-1,1,0,0,0,63,63,28,1,,,,,,,,,,,,,,,,,,,,,
,,,,,,,,,,,,,,,,,,,,,,,,,,,,,,,,,,,,,,,,,,,5eea256b9e506b0d09822cdc,5ff3a4a9cb7697a1f315237d,2021-01-04_23h28.57.048,Colour_Similarity_Experiment_v1,2020.1.2,Win32,60,5ff3a352adaa099f7659f8cc,,,,,,,,,,,,,,,,,,,,FF,,,,,,,,6,2.29651,,,,,,,,,,,,,,,,,,,,,,,,,,,,7,60,41,1,0,0,response1disk,3,65,2,7,1,0,0,rectangle,2,7,1,0,0,7,0,0,0.002515,2,7,1,0,0,0,64,64,73,1,,,,,,,,,,,,,,,,,,,,,
,,,,,,,,,,,,,,,,,,,,,,,,,,,,,,,,,,,,,,,,,,,5eea256b9e506b0d09822cdc,5ff3a4a9cb7697a1f315237d,2021-01-04_23h28.57.048,Colour_Similarity_Experiment_v1,2020.1.2,Win32,60,5ff3a352adaa099f7659f8cc,,,,,,,,,,,,,,,,,,,,FF,,,,,,,,7,2.220775,,,,,,,,,,,,,,,,,,,,,,,,,,,,9,39,78,1,0,0,response1disk,3,66,15,1,1,0,0,rectangle,15,1,1,0,0,7,7,0,0.03881,15,1,1,0,0,0,65,65,141,1,,,,,,,,,,,,,,,,,,,,,
,,,,,,,,,,,,,,,,,,,,,,,,,,,,,,,,,,,,,,,,,,,5eea256b9e506b0d09822cdc,5ff3a4a9cb7697a1f315237d,2021-01-04_23h28.57.048,Colour_Similarity_Experiment_v1,2020.1.2,Win32,60,5ff3a352adaa099f7659f8cc,,,,,,,,,,,,,,,,,,,,PF,,,,,,,,0,1.68814,,,,,,,,,,,,,,,,,,,,,,,,,,,,8,-48,80,1,0,0,response7disk,8,67,0,7,1,0,0,rectangle,0,7,1,0,0,7,1,0,0.003365,0,7,1,0,0,0,66,66,153,1,,,,,,,,,,,,,,,,,,,,,
,,,,,,,,,,,,,,,,,,,,,,,,,,,,,,,,,,,,,,,,,,,5eea256b9e506b0d09822cdc,5ff3a4a9cb7697a1f315237d,2021-01-04_23h28.57.048,Colour_Similarity_Experiment_v1,2020.1.2,Win32,60,5ff3a352adaa099f7659f8cc,,,,,,,,,,,,,,,,,,,,PF,,,,,,,,4,2.94393,,,,,,,,,,,,,,,,,,,,,,,,,,,,2,30,-73,1,0,0,response3disk,4,68,4,10,1,0,0,rectangle,4,10,1,0,0,7,0,0,0.00191,4,10,1,0,0,0,67,67,127,1,,,,,,,,,,,,,,,,,,,,,
,,,,,,,,,,,,,,,,,,,,,,,,,,,,,,,,,,,,,,,,,,,5eea256b9e506b0d09822cdc,5ff3a4a9cb7697a1f315237d,2021-01-04_23h28.57.048,Colour_Similarity_Experiment_v1,2020.1.2,Win32,60,5ff3a352adaa099f7659f8cc,,,,,,,,,,,,,,,,,,,,FF,,,,,,,,7,1.64043,,,,,,,,,,,,,,,,,,,,,,,,,,,,4,45,83,1,0,0,response1disk,1,69,11,-1,1,0,0,rectangle,11,-1,1,0,0,7,0,0,0.00206,11,-1,1,0,0,0,68,68,102,1,,,,,,,,,,,,,,,,,,,,,
,,,,,,,,,,,,,,,,,,,,,,,,,,,,,,,,,,,,,,,,,,,5eea256b9e506b0d09822cdc,5ff3a4a9cb7697a1f315237d,2021-01-04_23h28.57.048,Colour_Similarity_Experiment_v1,2020.1.2,Win32,60,5ff3a352adaa099f7659f8cc,,,,,,,,,,,,,,,,,,,,PF,,,,,,,,7,1.817905,,,,,,,,,,,,,,,,,,,,,,,,,,,,9,40,83,1,0,0,response1disk,7,70,9,-7,1,0,0,rectangle,9,-7,1,0,0,7,4,0,0.00232,9,-7,1,0,0,0,69,69,121,1,,,,,,,,,,,,,,,,,,,,,
,,,,,,,,,,,,,,,,,,,,,,,,,,,,,,,,,,,,,,,,,,,5eea256b9e506b0d09822cdc,5ff3a4a9cb7697a1f315237d,2021-01-04_23h28.57.048,Colour_Similarity_Experiment_v1,2020.1.2,Win32,60,5ff3a352adaa099f7659f8cc,,,,,,,,,,,,,,,,,,,,FF,,,,,,,,0,1.83095,,,,,,,,,,,,,,,,,,,,,,,,,,,,1,-31,95,1,0,0,response7disk,1,71,-11,0,1,0,0,rectangle,-11,0,1,0,0,7,0,0,0.00184,-11,0,1,0,0,0,70,70,151,1,,,,,,,,,,,,,,,,,,,,,
,,,,,,,,,,,,,,,,,,,,,,,,,,,,,,,,,,,,,,,,,,,5eea256b9e506b0d09822cdc,5ff3a4a9cb7697a1f315237d,2021-01-04_23h28.57.048,Colour_Similarity_Experiment_v1,2020.1.2,Win32,60,5ff3a352adaa099f7659f8cc,,,,,,,,,,,,,,,,,,,,FF,,,,,,,,7,1.88427,,,,,,,,,,,,,,,,,,,,,,,,,,,,7,38,85,1,0,0,response1disk,1,72,13,-4,1,0,0,rectangle,13,-4,1,0,0,7,4,0,0.00205,13,-4,1,0,0,0,71,71,132,1,,,,,,,,,,,,,,,,,,,,,
,,,,,,,,,,,,,,,,,,,,,,,,,,,,,,,,,,,,,,,,,,,5eea256b9e506b0d09822cdc,5ff3a4a9cb7697a1f315237d,2021-01-04_23h28.57.048,Colour_Similarity_Experiment_v1,2020.1.2,Win32,60,5ff3a352adaa099f7659f8cc,,,,,,,,,,,,,,,,,,,,FF,,,,,,,,4,2.48027,,,,,,,,,,,,,,,,,,,,,,,,,,,,6,52,-87,1,0,0,response3disk,3,73,13,1,1,0,0,rectangle,13,1,1,0,0,7,0,0,0.00236,13,1,1,0,0,0,72,72,21,1,,,,,,,,,,,,,,,,,,,,,
,,,,,,,,,,,,,,,,,,,,,,,,,,,,,,,,,,,,,,,,,,,5eea256b9e506b0d09822cdc,5ff3a4a9cb7697a1f315237d,2021-01-04_23h28.57.048,Colour_Similarity_Experiment_v1,2020.1.2,Win32,60,5ff3a352adaa099f7659f8cc,,,,,,,,,,,,,,,,,,,,PF,,,,,,,,7,1.761005,,,,,,,,,,,,,,,,,,,,,,,,,,,,9,35,78,1,0,0,response1disk,6,74,-5,2,1,0,0,rectangle,-5,2,1,0,0,7,0,0,0.002175,-5,2,1,0,0,0,73,73,148,1,,,,,,,,,,,,,,,,,,,,,
,,,,,,,,,,,,,,,,,,,,,,,,,,,,,,,,,,,,,,,,,,,5eea256b9e506b0d09822cdc,5ff3a4a9cb7697a1f315237d,2021-01-04_23h28.57.048,Colour_Similarity_Experiment_v1,2020.1.2,Win32,60,5ff3a352adaa099f7659f8cc,,,,,,,,,,,,,,,,,,,,FF,,,,,,,,7,3.34612,,,,,,,,,,,,,,,,,,,,,,,,,,,,9,39,76,1,0,0,response1disk,2,75,11,8,1,0,0,rectangle,-74,36,1,0,0,1,1,1,2.33664,22,4,1,0,0,0,74,74,11,1,response7disk_3,rectangle,,,,,,,,,,,,,,,,,,,
,,,,,,,,,,,,,,,,,,,,,,,,,,,,,,,,,,,,,,,,,,,5eea256b9e506b0d09822cdc,5ff3a4a9cb7697a1f315237d,2021-01-04_23h28.57.048,Colour_Similarity_Experiment_v1,2020.1.2,Win32,60,5ff3a352adaa099f7659f8cc,,,,,,,,,,,,,,,,,,,,PF,,,,,,,,4,2.860045,,,,,,,,,,,,,,,,,,,,,,,,,,,,8,23,-67,1,0,0,response3disk,1,76,-3,7,1,0,0,rectangle,-3,7,1,0,0,1,3,0,0.08868,-3,7,1,0,0,0,75,75,57,1,,,,,,,,,,,,,,,,,,,,,
,,,,,,,,,,,,,,,,,,,,,,,,,,,,,,,,,,,,,,,,,,,5eea256b9e506b0d09822cdc,5ff3a4a9cb7697a1f315237d,2021-01-04_23h28.57.048,Colour_Similarity_Experiment_v1,2020.1.2,Win32,60,5ff3a352adaa099f7659f8cc,,,,,,,,,,,,,,,,,,,,PF,,,,,,,,7,2.548495,,,,,,,,,,,,,,,,,,,,,,,,,,,,4,33,74,1,0,0,response1disk,9,77,-13,0,1,0,0,rectangle,-13,0,1,0,0,1,4,0,0.03892,-13,0,1,0,0,0,76,76,75,1,,,,,,,,,,,,,,,,,,,,,
,,,,,,,,,,,,,,,,,,,,,,,,,,,,,,,,,,,,,,,,,,,5eea256b9e506b0d09822cdc,5ff3a4a9cb7697a1f315237d,2021-01-04_23h28.57.048,Colour_Similarity_Experiment_v1,2020.1.2,Win32,60,5ff3a352adaa099f7659f8cc,,,,,,,,,,,,,,,,,,,,PF,,,,,,,,0,2.45713,,,,,,,,,,,,,,,,,,,,,,,,,,,,7,-58,96,1,0,0,response7disk,7,78,-1,4,1,0,0,rectangle,-1,4,1,0,0,1,0,0,0.001995,-1,4,1,0,0,0,77,77,51,1,,,,,,,,,,,,,,,,,,,,,
,,,,,,,,,,,,,,,,,,,,,,,,,,,,,,,,,,,,,,,,,,,5eea256b9e506b0d09822cdc,5ff3a4a9cb7697a1f315237d,2021-01-04_23h28.57.048,Colour_Similarity_Experiment_v1,2020.1.2,Win32,60,5ff3a352adaa099f7659f8cc,,,,,,,,,,,,,,,,,,,,PF,,,,,,,,7,2.44395,,,,,,,,,,,,,,,,,,,,,,,,,,,,6,48,88,1,0,0,response1disk,2,79,-1,12,1,0,0,rectangle,-1,12,1,0,0,1,2,0,0.03885,-1,12,1,0,0,0,78,78,130,1,,,,,,,,,,,,,,,,,,,,,
,,,,,,,,,,,,,,,,,,,,,,,,,,,,,,,,,,,,,,,,,,,5eea256b9e506b0d09822cdc,5ff3a4a9cb7697a1f315237d,2021-01-04_23h28.57.048,Colour_Similarity_Experiment_v1,2020.1.2,Win32,60,5ff3a352adaa099f7659f8cc,,,,,,,,,,,,,,,,,,,,PF,,,,,,,,7,2.34837,,,,,,,,,,,,,,,,,,,,,,,,,,,,3,52,108,1,0,0,response1disk,6,80,-3,13,1,0,0,rectangle,-3,13,1,0,0,1,4,0,0.002665,-3,13,1,0,0,0,79,79,47,1,,,,,,,,,,,,,,,,,,,,,
,,,,,,,,,,,,,,,,,,,,,,,,,,,,,,,,,,,,,,,,,,,5eea256b9e506b0d09822cdc,5ff3a4a9cb7697a1f315237d,2021-01-04_23h28.57.048,Colour_Similarity_Experiment_v1,2020.1.2,Win32,60,5ff3a352adaa099f7659f8cc,,,,,,,,,,,,,,,,,,,,PF,,,,,,,,7,1.93406,,,,,,,,,,,,,,,,,,,,,,,,,,,,3,40,97,1,0,0,response1disk,8,81,-1,12,1,0,0,rectangle,-1,12,1,0,0,1,3,0,0.00367,-1,12,1,0,0,0,80,80,3,1,,,,,,,,,,,,,,,,,,,,,
,,,,,,,,,,,,,,,,,,,,,,,,,,,,,,,,,,,,,,,,,,,5eea256b9e506b0d09822cdc,5ff3a4a9cb7697a1f315237d,2021-01-04_23h28.57.048,Colour_Similarity_Experiment_v1,2020.1.2,Win32,60,5ff3a352adaa099f7659f8cc,,,,,,,,,,,,,,,,,,,,PF,,,,,,,,4,2.91213,,,,,,,,,,,,,,,,,,,,,,,,,,,,8,25,-73,1,0,0,response3disk,7,82,-1,-5,1,0,0,rectangle,-1,-5,1,0,0,1,7,0,0.00191,-1,-5,1,0,0,0,81,81,23,1,,,,,,,,,,,,,,,,,,,,,
,,,,,,,,,,,,,,,,,,,,,,,,,,,,,,,,,,,,,,,,,,,5eea256b9e506b0d09822cdc,5ff3a4a9cb7697a1f315237d,2021-01-04_23h28.57.048,Colour_Similarity_Experiment_v1,2020.1.2,Win32,60,5ff3a352adaa099f7659f8cc,,,,,,,,,,,,,,,,,,,,PF,,,,,,,,7,1.802255,,,,,,,,,,,,,,,,,,,,,,,,,,,,2,22,76,1,0,0,response1disk,7,83,-4,14,1,0,0,rectangle,-4,14,1,0,0,1,4,0,0.038225,-4,14,1,0,0,0,82,82,107,1,,,,,,,,,,,,,,,,,,,,,
,,,,,,,,,,,,,,,,,,,,,,,,,,,,,,,,,,,,,,,,,,,5eea256b9e506b0d09822cdc,5ff3a4a9cb7697a1f315237d,2021-01-04_23h28.57.048,Colour_Similarity_Experiment_v1,2020.1.2,Win32,60,5ff3a352adaa099f7659f8cc,,,,,,,,,,,,,,,,,,,,PF,,,,,,,,5,3.24685,,,,,,,,,,,,,,,,,,,,,,,,,,,,1,69,-33,1,0,0,response3disk,8,84,-2,8,1,0,0,rectangle,-2,8,1,0,0,1,3,0,0.00175,-2,8,1,0,0,0,83,83,65,1,,,,,,,,,,,,,,,,,,,,,
,,,,,,,,,,,,,,,,,,,,,,,,,,,,,,,,,,,,,,,,,,,5eea256b9e506b0d09822cdc,5ff3a4a9cb7697a1f315237d,2021-01-04_23h28.57.048,Colour_Similarity_Experiment_v1,2020.1.2,Win32,60,5ff3a352adaa099f7659f8cc,,,,,,,,,,,,,,,,,,,,FF,,,,,,,,3,2.505935,,,,,,,,,,,,,,,,,,,,,,,,,,,,7,-65,-101,1,0,0,response5disk,6,85,-5,7,1,0,0,rectangle,-5,7,1,0,0,1,7,0,0.002205,-5,7,1,0,0,0,84,84,31,1,,,,,,,,,,,,,,,,,,,,,
,,,,,,,,,,,,,,,,,,,,,,,,,,,,,,,,,,,,,,,,,,,5eea256b9e506b0d09822cdc,5ff3a4a9cb7697a1f315237d,2021-01-04_23h28.57.048,Colour_Similarity_Experiment_v1,2020.1.2,Win32,60,5ff3a352adaa099f7659f8cc,,,,,,,,,,,,,,,,,,,,PF,,,,,,,,5,3.88191,,,,,,,,,,,,,,,,,,,,,,,,,,,,7,64,-31,1,0,0,response3disk,3,86,-12,-2,1,0,0,rectangle,-12,-2,1,0,0,1,6,0,0.00181,-12,-2,1,0,0,0,85,85,81,1,,,,,,,,,,,,,,,,,,,,,
,,,,,,,,,,,,,,,,,,,,,,,,,,,,,,,,,,,,,,,,,,,5eea256b9e506b0d09822cdc,5ff3a4a9cb7697a1f315237d,2021-01-04_23h28.57.048,Colour_Similarity_Experiment_v1,2020.1.2,Win32,60,5ff3a352adaa099f7659f8cc,,,,,,,,,,,,,,,,,,,,FF,,,,,,,,0,2.18643,,,,,,,,,,,,,,,,,,,,,,,,,,,,7,-40,88,1,0,0,response7disk,7,87,-4,-12,1,0,0,rectangle,-4,-12,1,0,0,1,7,0,0.00213,-4,-12,1,0,0,0,86,86,34,1,,,,,,,,,,,,,,,,,,,,,
,,,,,,,,,,,,,,,,,,,,,,,,,,,,,,,,,,,,,,,,,,,5eea256b9e506b0d09822cdc,5ff3a4a9cb7697a1f315237d,2021-01-04_23h28.57.048,Colour_Similarity_Experiment_v1,2020.1.2,Win32,60,5ff3a352adaa099f7659f8cc,,,,,,,,,,,,,,,,,,,,FF,,,,,,,,7,2.49271,,,,,,,,,,,,,,,,,,,,,,,,,,,,3,31,95,1,0,0,response1disk,7,88,-1,6,1,0,0,rectangle,-1,6,1,0,0,1,2,0,0.001865,-1,6,1,0,0,0,87,87,118,1,,,,,,,,,,,,,,,,,,,,,
,,,,,,,,,,,,,,,,,,,,,,,,,,,,,,,,,,,,,,,,,,,5eea256b9e506b0d09822cdc,5ff3a4a9cb7697a1f315237d,2021-01-04_23h28.57.048,Colour_Similarity_Experiment_v1,2020.1.2,Win32,60,5ff3a352adaa099f7659f8cc,,,,,,,,,,,,,,,,,,,,FF,,,,,,,,7,2.25628,,,,,,,,,,,,,,,,,,,,,,,,,,,,1,27,103,1,0,0,response1disk,5,89,-3,8,1,0,0,rectangle,-3,8,1,0,0,1,0,0,0.00192,-3,8,1,0,0,0,88,88,82,1,,,,,,,,,,,,,,,,,,,,,
,,,,,,,,,,,,,,,,,,,,,,,,,,,,,,,,,,,,,,,,,,,5eea256b9e506b0d09822cdc,5ff3a4a9cb7697a1f315237d,2021-01-04_23h28.57.048,Colour_Similarity_Experiment_v1,2020.1.2,Win32,60,5ff3a352adaa099f7659f8cc,,,,,,,,,,,,,,,,,,,,PF,,,,,,,,3,2.328725,,,,,,,,,,,,,,,,,,,,,,,,,,,,9,-40,-98,1,0,0,response5disk,1,90,10,-12,1,0,0,rectangle,10,-12,1,0,0,1,1,0,0.004025,10,-12,1,0,0,0,89,89,74,1,,,,,,,,,,,,,,,,,,,,,
,,,,,,,,,,,,,,,,,,,,,,,,,,,,,,,,,,,,,,,,,,,5eea256b9e506b0d09822cdc,5ff3a4a9cb7697a1f315237d,2021-01-04_23h28.57.048,Colour_Similarity_Experiment_v1,2020.1.2,Win32,60,5ff3a352adaa099f7659f8cc,,,,,,,,,,,,,,,,,,,,PF,,,,,,,,7,1.78119,,,,,,,,,,,,,,,,,,,,,,,,,,,,1,45,79,1,0,0,response1disk,7,91,-13,-9,1,0,0,rectangle,-13,-9,1,0,0,1,2,0,0.00273,-13,-9,1,0,0,0,90,90,150,1,,,,,,,,,,,,,,,,,,,,,
,,,,,,,,,,,,,,,,,,,,,,,,,,,,,,,,,,,,,,,,,,,5eea256b9e506b0d09822cdc,5ff3a4a9cb7697a1f315237d,2021-01-04_23h28.57.048,Colour_Similarity_Experiment_v1,2020.1.2,Win32,60,5ff3a352adaa099f7659f8cc,,,,,,,,,,,,,,,,,,,,FF,,,,,,,,4,3.13397,,,,,,,,,,,,,,,,,,,,,,,,,,,,1,48,-60,1,0,0,response3disk,2,92,-2,-3,1,0,0,rectangle,-2,-3,1,0,0,1,4,0,0.001915,-2,-3,1,0,0,0,91,91,2,1,,,,,,,,,,,,,,,,,,,,,
,,,,,,,,,,,,,,,,,,,,,,,,,,,,,,,,,,,,,,,,,,,5eea256b9e506b0d09822cdc,5ff3a4a9cb7697a1f315237d,2021-01-04_23h28.57.048,Colour_Similarity_Experiment_v1,2020.1.2,Win32,60,5ff3a352adaa099f7659f8cc,,,,,,,,,,,,,,,,,,,,FF,,,,,,,,3,4.841635,,,,,,,,,,,,,,,,,,,,,,,,,,,,3,-42,-79,1,0,0,response5disk,2,93,-8,0,1,0,0,rectangle,-8,0,1,0,0,1,3,0,0.00214,-8,0,1,0,0,0,92,92,93,1,,,,,,,,,,,,,,,,,,,,,
,,,,,,,,,,,,,,,,,,,,,,,,,,,,,,,,,,,,,,,,,,,5eea256b9e506b0d09822cdc,5ff3a4a9cb7697a1f315237d,2021-01-04_23h28.57.048,Colour_Similarity_Experiment_v1,2020.1.2,Win32,60,5ff3a352adaa099f7659f8cc,,,,,,,,,,,,,,,,,,,,PF,,,,,,,,5,3.012895,,,,,,,,,,,,,,,,,,,,,,,,,,,,7,66,-42,1,0,0,response3disk,4,94,5,3,1,0,0,rectangle,5,3,1,0,0,1,6,0,0.002285,5,3,1,0,0,0,93,93,43,1,,,,,,,,,,,,,,,,,,,,,
,,,,,,,,,,,,,,,,,,,,,,,,,,,,,,,,,,,,,,,,,,,5eea256b9e506b0d09822cdc,5ff3a4a9cb7697a1f315237d,2021-01-04_23h28.57.048,Colour_Similarity_Experiment_v1,2020.1.2,Win32,60,5ff3a352adaa099f7659f8cc,,,,,,,,,,,,,,,,,,,,FF,,,,,,,,6,3.276905,,,,,,,,,,,,,,,,,,,,,,,,,,,,1,86,24,1,0,0,response1disk,8,95,-10,-5,1,0,0,rectangle,-10,-5,1,0,0,1,6,0,0.002135,-10,-5,1,0,0,0,94,94,27,1,,,,,,,,,,,,,,,,,,,,,
,,,,,,,,,,,,,,,,,,,,,,,,,,,,,,,,,,,,,,,,,,,5eea256b9e506b0d09822cdc,5ff3a4a9cb7697a1f315237d,2021-01-04_23h28.57.048,Colour_Similarity_Experiment_v1,2020.1.2,Win32,60,5ff3a352adaa099f7659f8cc,,,,,,,,,,,,,,,,,,,,PF,,,,,,,,7,1.832805,,,,,,,,,,,,,,,,,,,,,,,,,,,,7,21,82,1,0,0,response1disk,1,96,-2,-6,1,0,0,rectangle,-2,-6,1,0,0,1,4,0,0.00186,-2,-6,1,0,0,0,95,95,53,1,,,,,,,,,,,,,,,,,,,,,
,,,,,,,,,,,,,,,,,,,,,,,,,,,,,,,,,,,,,,,,,,,5eea256b9e506b0d09822cdc,5ff3a4a9cb7697a1f315237d,2021-01-04_23h28.57.048,Colour_Similarity_Experiment_v1,2020.1.2,Win32,60,5ff3a352adaa099f7659f8cc,,,,,,,,,,,,,,,,,,,,PF,,,,,,,,7,2.613295,,,,,,,,,,,,,,,,,,,,,,,,,,,,3,43,68,1,0,0,response1disk,1,97,11,7,1,0,0,rectangle,11,7,1,0,0,1,7,0,0.001805,11,7,1,0,0,0,96,96,96,1,,,,,,,,,,,,,,,,,,,,,
,,,,,,,,,,,,,,,,,,,,,,,,,,,,,,,,,,,,,,,,,,,5eea256b9e506b0d09822cdc,5ff3a4a9cb7697a1f315237d,2021-01-04_23h28.57.048,Colour_Similarity_Experiment_v1,2020.1.2,Win32,60,5ff3a352adaa099f7659f8cc,,,,,,,,,,,,,,,,,,,,FF,,,,,,,,7,1.807655,,,,,,,,,,,,,,,,,,,,,,,,,,,,2,32,95,1,0,0,response1disk,6,98,2,8,1,0,0,rectangle,2,8,1,0,0,1,2,0,0.001915,2,8,1,0,0,0,97,97,40,1,,,,,,,,,,,,,,,,,,,,,
,,,,,,,,,,,,,,,,,,,,,,,,,,,,,,,,,,,,,,,,,,,5eea256b9e506b0d09822cdc,5ff3a4a9cb7697a1f315237d,2021-01-04_23h28.57.048,Colour_Similarity_Experiment_v1,2020.1.2,Win32,60,5ff3a352adaa099f7659f8cc,,,,,,,,,,,,,,,,,,,,FF,,,,,,,,3,2.51475,,,,,,,,,,,,,,,,,,,,,,,,,,,,1,-29,-73,1,0,0,response5disk,9,99,-5,3,1,0,0,rectangle,-5,3,1,0,0,1,1,0,0.00264,-5,3,1,0,0,0,98,98,123,1,,,,,,,,,,,,,,,,,,,,,
,,,,,,,,,,,,,,,,,,,,,,,,,,,,,,,,,,,,,,,,,,,5eea256b9e506b0d09822cdc,5ff3a4a9cb7697a1f315237d,2021-01-04_23h28.57.048,Colour_Similarity_Experiment_v1,2020.1.2,Win32,60,5ff3a352adaa099f7659f8cc,,,,,,,,,,,,,,,,,,,,FF,,,,,,,,7,1.99811,,,,,,,,,,,,,,,,,,,,,,,,,,,,3,25,91,1,0,0,response1disk,9,100,0,-4,1,0,0,rectangle,0,-4,1,0,0,1,4,0,0.00188,0,-4,1,0,0,0,99,99,143,1,,,,,,,,,,,,,,,,,,,,,
,,,,,,,,,,,,,,,,,,,,,,,,,,,,,,,,,,,,,,,,,,,5eea256b9e506b0d09822cdc,5ff3a4a9cb7697a1f315237d,2021-01-04_23h28.57.048,Colour_Similarity_Experiment_v1,2020.1.2,Win32,60,5ff3a352adaa099f7659f8cc,,,,,,,,,,,,,,,,,,,,PF,,,,,,,,7,2.084015,,,,,,,,,,,,,,,,,,,,,,,,,,,,9,48,99,1,0,0,response1disk,5,101,-4,11,1,0,0,rectangle,-4,11,1,0,0,1,2,0,0.00232,-4,11,1,0,0,0,100,100,134,1,,,,,,,,,,,,,,,,,,,,,
,,,,,,,,,,,,,,,,,,,,,,,,,,,,,,,,,,,,,,,,,,,5eea256b9e506b0d09822cdc,5ff3a4a9cb7697a1f315237d,2021-01-04_23h28.57.048,Colour_Similarity_Experiment_v1,2020.1.2,Win32,60,5ff3a352adaa099f7659f8cc,,,,,,,,,,,,,,,,,,,,PF,,,,,,,,1,2.61505,,,,,,,,,,,,,,,,,,,,,,,,,,,,6,-84,22,1,0,0,response7disk,5,102,-16,0,1,0,0,rectangle,-16,0,1,0,0,1,1,0,0.001575,-16,0,1,0,0,0,101,101,59,1,,,,,,,,,,,,,,,,,,,,,
,,,,,,,,,,,,,,,,,,,,,,,,,,,,,,,,,,,,,,,,,,,5eea256b9e506b0d09822cdc,5ff3a4a9cb7697a1f315237d,2021-01-04_23h28.57.048,Colour_Similarity_Experiment_v1,2020.1.2,Win32,60,5ff3a352adaa099f7659f8cc,,,,,,,,,,,,,,,,,,,,FF,,,,,,,,0,1.885845,,,,,,,,,,,,,,,,,,,,,,,,,,,,4,-42,99,1,0,0,response7disk,4,103,-6,-12,1,0,0,rectangle,-6,-12,1,0,0,1,7,0,0.001765,-6,-12,1,0,0,0,102,102,84,1,,,,,,,,,,,,,,,,,,,,,
,,,,,,,,,,,,,,,,,,,,,,,,,,,,,,,,,,,,,,,,,,,5eea256b9e506b0d09822cdc,5ff3a4a9cb7697a1f315237d,2021-01-04_23h28.57.048,Colour_Similarity_Experiment_v1,2020.1.2,Win32,60,5ff3a352adaa099f7659f8cc,,,,,,,,,,,,,,,,,,,,FF,,,,,,,,2,2.564825,,,,,,,,,,,,,,,,,,,,,,,,,,,,2,-69,-33,1,0,0,response5disk,3,104,-7,0,1,0,0,rectangle,-73,46,1,0,0,1,1,1,3.01465,3,-1,1,0,0,0,103,103,104,1,response7disk_3,rectangle,,,,,,,,,,,,,,,,,,,
,,,,,,,,,,,,,,,,,,,,,,,,,,,,,,,,,,,,,,,,,,,5eea256b9e506b0d09822cdc,5ff3a4a9cb7697a1f315237d,2021-01-04_23h28.57.048,Colour_Similarity_Experiment_v1,2020.1.2,Win32,60,5ff3a352adaa099f7659f8cc,,,,,,,,,,,,,,,,,,,,PF,,,,,,,,7,2.81113,,,,,,,,,,,,,,,,,,,,,,,,,,,,1,46,92,1,0,0,response1disk,3,105,-3,1,1,0,0,rectangle,-3,1,1,0,0,1,4,0,0.00197,-3,1,1,0,0,0,104,104,1,1,,,,,,,,,,,,,,,,,,,,,
,,,,,,,,,,,,,,,,,,,,,,,,,,,,,,,,,,,,,,,,,,,5eea256b9e506b0d09822cdc,5ff3a4a9cb7697a1f315237d,2021-01-04_23h28.57.048,Colour_Similarity_Experiment_v1,2020.1.2,Win32,60,5ff3a352adaa099f7659f8cc,,,,,,,,,,,,,,,,,,,,FF,,,,,,,,3,2.30491,,,,,,,,,,,,,,,,,,,,,,,,,,,,8,-33,-92,1,0,0,response5disk,9,106,5,-4,1,0,0,rectangle,5,-4,1,0,0,1,2,0,0.002725,5,-4,1,0,0,0,105,105,105,1,,,,,,,,,,,,,,,,,,,,,
,,,,,,,,,,,,,,,,,,,,,,,,,,,,,,,,,,,,,,,,,,,5eea256b9e506b0d09822cdc,5ff3a4a9cb7697a1f315237d,2021-01-04_23h28.57.048,Colour_Similarity_Experiment_v1,2020.1.2,Win32,60,5ff3a352adaa099f7659f8cc,,,,,,,,,,,,,,,,,,,,PF,,,,,,,,7,1.989425,,,,,,,,,,,,,,,,,,,,,,,,,,,,3,41,92,1,0,0,response1disk,9,107,-12,2,1,0,0,rectangle,-12,2,1,0,0,1,3,0,0.094645,-12,2,1,0,0,0,106,106,79,1,,,,,,,,,,,,,,,,,,,,,
,,,,,,,,,,,,,,,,,,,,,,,,,,,,,,,,,,,,,,,,,,,5eea256b9e506b0d09822cdc,5ff3a4a9cb7697a1f315237d,2021-01-04_23h28.57.048,Colour_Similarity_Experiment_v1,2020.1.2,Win32,60,5ff3a352adaa099f7659f8cc,,,,,,,,,,,,,,,,,,,,FF,,,,,,,,5,2.66903,,,,,,,,,,,,,,,,,,,,,,,,,,,,2,51,-24,1,0,0,response3disk,1,108,7,6,1,0,0,rectangle,7,6,1,0,0,1,3,0,0.00268,7,6,1,0,0,0,107,107,85,1,,,,,,,,,,,,,,,,,,,,,
,,,,,,,,,,,,,,,,,,,,,,,,,,,,,,,,,,,,,,,,,,,5eea256b9e506b0d09822cdc,5ff3a4a9cb7697a1f315237d,2021-01-04_23h28.57.048,Colour_Similarity_Experiment_v1,2020.1.2,Win32,60,5ff3a352adaa099f7659f8cc,,,,,,,,,,,,,,,,,,,,PF,,,,,,,,7,1.94461,,,,,,,,,,,,,,,,,,,,,,,,,,,,8,31,87,1,0,0,response1disk,4,109,4,-7,1,0,0,rectangle,4,-7,1,0,0,1,2,0,0.002,4,-7,1,0,0,0,108,108,78,1,,,,,,,,,,,,,,,,,,,,,
,,,,,,,,,,,,,,,,,,,,,,,,,,,,,,,,,,,,,,,,,,,5eea256b9e506b0d09822cdc,5ff3a4a9cb7697a1f315237d,2021-01-04_23h28.57.048,Colour_Similarity_Experiment_v1,2020.1.2,Win32,60,5ff3a352adaa099f7659f8cc,,,,,,,,,,,,,,,,,,,,PF,,,,,,,,7,1.785465,,,,,,,,,,,,,,,,,,,,,,,,,,,,2,31,72,1,0,0,response1disk,8,110,1,10,1,0,0,rectangle,1,10,1,0,0,1,2,0,0.00169,1,10,1,0,0,0,109,109,52,1,,,,,,,,,,,,,,,,,,,,,
,,,,,,,,,,,,,,,,,,,,,,,,,,,,,,,,,,,,,,,,,,,5eea256b9e506b0d09822cdc,5ff3a4a9cb7697a1f315237d,2021-01-04_23h28.57.048,Colour_Similarity_Experiment_v1,2020.1.2,Win32,60,5ff3a352adaa099f7659f8cc,,,,,,,,,,,,,,,,,,,,PF,,,,,,,,1,2.480115,,,,,,,,,,,,,,,,,,,,,,,,,,,,3,-93,51,1,0,0,response7disk,3,111,-18,7,1,0,0,rectangle,-18,7,1,0,0,1,7,0,0.002265,-18,7,1,0,0,0,110,110,4,1,,,,,,,,,,,,,,,,,,,,,
,,,,,,,,,,,,,,,,,,,,,,,,,,,,,,,,,,,,,,,,,,,5eea256b9e506b0d09822cdc,5ff3a4a9cb7697a1f315237d,2021-01-04_23h28.57.048,Colour_Similarity_Experiment_v1,2020.1.2,Win32,60,5ff3a352adaa099f7659f8cc,,,,,,,,,,,,,,,,,,,,FF,,,,,,,,7,2.569935,,,,,,,,,,,,,,,,,,,,,,,,,,,,5,33,89,1,0,0,response1disk,2,112,-4,2,1,0,0,rectangle,-31,111,1,0,0,0,0,1,2.594485,-1,5,1,0,0,0,111,111,55,1,response7disk_3,rectangle,,,,,,,,,,,,,,,,,,,
,,,,,,,,,,,,,,,,,,,,,,,,,,,,,,,,,,,,,,,,,,,5eea256b9e506b0d09822cdc,5ff3a4a9cb7697a1f315237d,2021-01-04_23h28.57.048,Colour_Similarity_Experiment_v1,2020.1.2,Win32,60,5ff3a352adaa099f7659f8cc,,,,,,,,,,,,,,,,,,,,PF,,,,,,,,7,1.99051,,,,,,,,,,,,,,,,,,,,,,,,,,,,5,44,72,1,0,0,response1disk,2,113,4,3,1,0,0,rectangle,4,3,1,0,0,0,6,0,0.002235,4,3,1,0,0,0,112,112,129,1,,,,,,,,,,,,,,,,,,,,,
,,,,,,,,,,,,,,,,,,,,,,,,,,,,,,,,,,,,,,,,,,,5eea256b9e506b0d09822cdc,5ff3a4a9cb7697a1f315237d,2021-01-04_23h28.57.048,Colour_Similarity_Experiment_v1,2020.1.2,Win32,60,5ff3a352adaa099f7659f8cc,,,,,,,,,,,,,,,,,,,,PF,,,,,,,,4,3.10801,,,,,,,,,,,,,,,,,,,,,,,,,,,,4,35,-73,1,0,0,response3disk,6,114,3,-7,1,0,0,rectangle,3,-7,1,0,0,0,7,0,0.082865,3,-7,1,0,0,0,113,113,120,1,,,,,,,,,,,,,,,,,,,,,
,,,,,,,,,,,,,,,,,,,,,,,,,,,,,,,,,,,,,,,,,,,5eea256b9e506b0d09822cdc,5ff3a4a9cb7697a1f315237d,2021-01-04_23h28.57.048,Colour_Similarity_Experiment_v1,2020.1.2,Win32,60,5ff3a352adaa099f7659f8cc,,,,,,,,,,,,,,,,,,,,PF,,,,,,,,6,2.661475,,,,,,,,,,,,,,,,,,,,,,,,,,,,8,81,30,1,0,0,response1disk,3,115,-17,-4,1,0,0,rectangle,-17,-4,1,0,0,0,1,0,0.00169,-17,-4,1,0,0,0,114,114,71,1,,,,,,,,,,,,,,,,,,,,,
,,,,,,,,,,,,,,,,,,,,,,,,,,,,,,,,,,,,,,,,,,,5eea256b9e506b0d09822cdc,5ff3a4a9cb7697a1f315237d,2021-01-04_23h28.57.048,Colour_Similarity_Experiment_v1,2020.1.2,Win32,60,5ff3a352adaa099f7659f8cc,,,,,,,,,,,,,,,,,,,,PF,,,,,,,,5,2.595535,,,,,,,,,,,,,,,,,,,,,,,,,,,,1,70,-46,1,0,0,response3disk,2,116,7,-6,1,0,0,rectangle,7,-6,1,0,0,0,3,0,0.00223,7,-6,1,0,0,0,115,115,24,1,,,,,,,,,,,,,,,,,,,,,
,,,,,,,,,,,,,,,,,,,,,,,,,,,,,,,,,,,,,,,,,,,5eea256b9e506b0d09822cdc,5ff3a4a9cb7697a1f315237d,2021-01-04_23h28.57.048,Colour_Similarity_Experiment_v1,2020.1.2,Win32,60,5ff3a352adaa099f7659f8cc,,,,,,,,,,,,,,,,,,,,PF,,,,,,,,7,2.44735,,,,,,,,,,,,,,,,,,,,,,,,,,,,4,40,65,1,0,0,response1disk,1,117,9,1,1,0,0,rectangle,9,1,1,0,0,0,5,0,0.002215,9,1,1,0,0,0,116,116,115,1,,,,,,,,,,,,,,,,,,,,,
,,,,,,,,,,,,,,,,,,,,,,,,,,,,,,,,,,,,,,,,,,,5eea256b9e506b0d09822cdc,5ff3a4a9cb7697a1f315237d,2021-01-04_23h28.57.048,Colour_Similarity_Experiment_v1,2020.1.2,Win32,60,5ff3a352adaa099f7659f8cc,,,,,,,,,,,,,,,,,,,,FF,,,,,,,,7,1.927805,,,,,,,,,,,,,,,,,,,,,,,,,,,,9,38,88,1,0,0,response1disk,4,118,9,-4,1,0,0,rectangle,9,-4,1,0,0,0,0,0,0.0017,9,-4,1,0,0,0,117,117,60,1,,,,,,,,,,,,,,,,,,,,,
,,,,,,,,,,,,,,,,,,,,,,,,,,,,,,,,,,,,,,,,,,,5eea256b9e506b0d09822cdc,5ff3a4a9cb7697a1f315237d,2021-01-04_23h28.57.048,Colour_Similarity_Experiment_v1,2020.1.2,Win32,60,5ff3a352adaa099f7659f8cc,,,,,,,,,,,,,,,,,,,,FF,,,,,,,,3,3.547325,,,,,,,,,,,,,,,,,,,,,,,,,,,,6,-27,-59,1,0,0,response5disk,8,119,0,8,1,0,0,rectangle,0,8,1,0,0,0,6,0,0.00208,0,8,1,0,0,0,118,118,133,1,,,,,,,,,,,,,,,,,,,,,
,,,,,,,,,,,,,,,,,,,,,,,,,,,,,,,,,,,,,,,,,,,5eea256b9e506b0d09822cdc,5ff3a4a9cb7697a1f315237d,2021-01-04_23h28.57.048,Colour_Similarity_Experiment_v1,2020.1.2,Win32,60,5ff3a352adaa099f7659f8cc,,,,,,,,,,,,,,,,,,,,FF,,,,,,,,7,2.458695,,,,,,,,,,,,,,,,,,,,,,,,,,,,2,31,88,1,0,0,response1disk,8,120,-4,1,1,0,0,rectangle,-4,1,1,0,0,0,1,0,0.00218,-4,1,1,0,0,0,119,119,62,1,,,,,,,,,,,,,,,,,,,,,
,,,,,,,,,,,,,,,,,,,,,,,,,,,,,,,,,,,,,,,,,,,5eea256b9e506b0d09822cdc,5ff3a4a9cb7697a1f315237d,2021-01-04_23h28.57.048,Colour_Similarity_Experiment_v1,2020.1.2,Win32,60,5ff3a352adaa099f7659f8cc,,,,,,,,,,,,,,,,,,,,FF,,,,,,,,0,1.806225,,,,,,,,,,,,,,,,,,,,,,,,,,,,8,-62,82,1,0,0,response7disk,8,121,-2,3,1,0,0,rectangle,-2,3,1,0,0,0,2,0,0.001845,-2,3,1,0,0,0,120,120,48,1,,,,,,,,,,,,,,,,,,,,,
,,,,,,,,,,,,,,,,,,,,,,,,,,,,,,,,,,,,,,,,,,,5eea256b9e506b0d09822cdc,5ff3a4a9cb7697a1f315237d,2021-01-04_23h28.57.048,Colour_Similarity_Experiment_v1,2020.1.2,Win32,60,5ff3a352adaa099f7659f8cc,,,,,,,,,,,,,,,,,,,,PF,,,,,,,,1,2.44823,,,,,,,,,,,,,,,,,,,,,,,,,,,,4,-107,35,1,0,0,response7disk,4,122,-1,3,1,0,0,rectangle,-1,3,1,0,0,0,1,0,0.002735,-1,3,1,0,0,0,121,121,70,1,,,,,,,,,,,,,,,,,,,,,
,,,,,,,,,,,,,,,,,,,,,,,,,,,,,,,,,,,,,,,,,,,5eea256b9e506b0d09822cdc,5ff3a4a9cb7697a1f315237d,2021-01-04_23h28.57.048,Colour_Similarity_Experiment_v1,2020.1.2,Win32,60,5ff3a352adaa099f7659f8cc,,,,,,,,,,,,,,,,,,,,FF,,,,,,,,7,2.670175,,,,,,,,,,,,,,,,,,,,,,,,,,,,6,35,90,1,0,0,response1disk,2,123,-1,-1,1,0,0,rectangle,-1,-1,1,0,0,0,4,0,0.00175,-1,-1,1,0,0,0,122,122,112,1,,,,,,,,,,,,,,,,,,,,,
,,,,,,,,,,,,,,,,,,,,,,,,,,,,,,,,,,,,,,,,,,,5eea256b9e506b0d09822cdc,5ff3a4a9cb7697a1f315237d,2021-01-04_23h28.57.048,Colour_Similarity_Experiment_v1,2020.1.2,Win32,60,5ff3a352adaa099f7659f8cc,,,,,,,,,,,,,,,,,,,,PF,,,,,,,,3,2.697235,,,,,,,,,,,,,,,,,,,,,,,,,,,,1,-40,-71,1,0,0,response5disk,9,124,-4,2,1,0,0,rectangle,-4,2,1,0,0,0,2,0,0.002785,-4,2,1,0,0,0,123,123,15,1,,,,,,,,,,,,,,,,,,,,,
,,,,,,,,,,,,,,,,,,,,,,,,,,,,,,,,,,,,,,,,,,,5eea256b9e506b0d09822cdc,5ff3a4a9cb7697a1f315237d,2021-01-04_23h28.57.048,Colour_Similarity_Experiment_v1,2020.1.2,Win32,60,5ff3a352adaa099f7659f8cc,,,,,,,,,,,,,,,,,,,,FF,,,,,,,,3,2.437355,,,,,,,,,,,,,,,,,,,,,,,,,,,,5,-54,-74,1,0,0,response5disk,3,125,-6,-6,1,0,0,rectangle,-6,-6,1,0,0,0,2,0,0.119475,-6,-6,1,0,0,0,124,124,25,1,,,,,,,,,,,,,,,,,,,,,
,,,,,,,,,,,,,,,,,,,,,,,,,,,,,,,,,,,,,,,,,,,5eea256b9e506b0d09822cdc,5ff3a4a9cb7697a1f315237d,2021-01-04_23h28.57.048,Colour_Similarity_Experiment_v1,2020.1.2,Win32,60,5ff3a352adaa099f7659f8cc,,,,,,,,,,,,,,,,,,,,PF,,,,,,,,2,3.23841,,,,,,,,,,,,,,,,,,,,,,,,,,,,2,-80,-38,1,0,0,response5disk,3,126,17,6,1,0,0,rectangle,17,6,1,0,0,0,1,0,0.00205,17,6,1,0,0,0,125,125,69,1,,,,,,,,,,,,,,,,,,,,,
,,,,,,,,,,,,,,,,,,,,,,,,,,,,,,,,,,,,,,,,,,,5eea256b9e506b0d09822cdc,5ff3a4a9cb7697a1f315237d,2021-01-04_23h28.57.048,Colour_Similarity_Experiment_v1,2020.1.2,Win32,60,5ff3a352adaa099f7659f8cc,,,,,,,,,,,,,,,,,,,,FF,,,,,,,,3,3.374195,,,,,,,,,,,,,,,,,,,,,,,,,,,,7,-54,-84,1,0,0,response5disk,8,127,16,5,1,0,0,rectangle,37,-82,1,0,0,4,4,1,2.7193,6,5,1,0,0,0,126,126,97,1,response3disk_3,rectangle,,,,,,,,,,,,,,,,,,,
,,,,,,,,,,,,,,,,,,,,,,,,,,,,,,,,,,,,,,,,,,,5eea256b9e506b0d09822cdc,5ff3a4a9cb7697a1f315237d,2021-01-04_23h28.57.048,Colour_Similarity_Experiment_v1,2020.1.2,Win32,60,5ff3a352adaa099f7659f8cc,,,,,,,,,,,,,,,,,,,,FF,,,,,,,,7,2.443475,,,,,,,,,,,,,,,,,,,,,,,,,,,,6,22,69,1,0,0,response1disk,9,128,5,-1,1,0,0,rectangle,31,65,1,0,0,7,7,1,2.74421,6,4,1,0,0,0,127,127,160,1,response1disk_3,rectangle,,,,,,,,,,,,,,,,,,,
,,,,,,,,,,,,,,,,,,,,,,,,,,,,,,,,,,,,,,,,,,,5eea256b9e506b0d09822cdc,5ff3a4a9cb7697a1f315237d,2021-01-04_23h28.57.048,Colour_Similarity_Experiment_v1,2020.1.2,Win32,60,5ff3a352adaa099f7659f8cc,,,,,,,,,,,,,,,,,,,,FF,,,,,,,,7,2.08889,,,,,,,,,,,,,,,,,,,,,,,,,,,,4,27,71,1,0,0,response1disk,9,129,3,4,1,0,0,rectangle,3,4,1,0,0,7,0,0,0.00213,3,4,1,0,0,0,128,128,90,1,,,,,,,,,,,,,,,,,,,,,
,,,,,,,,,,,,,,,,,,,,,,,,,,,,,,,,,,,,,,,,,,,5eea256b9e506b0d09822cdc,5ff3a4a9cb7697a1f315237d,2021-01-04_23h28.57.048,Colour_Similarity_Experiment_v1,2020.1.2,Win32,60,5ff3a352adaa099f7659f8cc,,,,,,,,,,,,,,,,,,,,FF,,,,,,,,0,1.97878,,,,,,,,,,,,,,,,,,,,,,,,,,,,9,-44,85,1,0,0,response7disk,9,130,-16,2,1,0,0,rectangle,-16,2,1,0,0,7,6,0,0.001905,-16,2,1,0,0,0,129,129,17,1,,,,,,,,,,,,,,,,,,,,,
,,,,,,,,,,,,,,,,,,,,,,,,,,,,,,,,,,,,,,,,,,,5eea256b9e506b0d09822cdc,5ff3a4a9cb7697a1f315237d,2021-01-04_23h28.57.048,Colour_Similarity_Experiment_v1,2020.1.2,Win32,60,5ff3a352adaa099f7659f8cc,,,,,,,,,,,,,,,,,,,,PF,,,,,,,,7,2.077175,,,,,,,,,,,,,,,,,,,,,,,,,,,,6,23,63,1,0,0,response1disk,9,131,3,2,1,0,0,rectangle,3,2,1,0,0,7,0,0,0.001825,3,2,1,0,0,0,130,130,45,1,,,,,,,,,,,,,,,,,,,,,
,,,,,,,,,,,,,,,,,,,,,,,,,,,,,,,,,,,,,,,,,,,5eea256b9e506b0d09822cdc,5ff3a4a9cb7697a1f315237d,2021-01-04_23h28.57.048,Colour_Similarity_Experiment_v1,2020.1.2,Win32,60,5ff3a352adaa099f7659f8cc,,,,,,,,,,,,,,,,,,,,PF,,,,,,,,7,1.95624,,,,,,,,,,,,,,,,,,,,,,,,,,,,7,45,97,1,0,0,response1disk,2,132,13,4,1,0,0,rectangle,13,4,1,0,0,7,3,0,0.002,13,4,1,0,0,0,131,131,32,1,,,,,,,,,,,,,,,,,,,,,
,,,,,,,,,,,,,,,,,,,,,,,,,,,,,,,,,,,,,,,,,,,5eea256b9e506b0d09822cdc,5ff3a4a9cb7697a1f315237d,2021-01-04_23h28.57.048,Colour_Similarity_Experiment_v1,2020.1.2,Win32,60,5ff3a352adaa099f7659f8cc,,,,,,,,,,,,,,,,,,,,PF,,,,,,,,7,2.17584,,,,,,,,,,,,,,,,,,,,,,,,,,,,5,42,60,1,0,0,response1disk,1,133,16,0,1,0,0,rectangle,-72,-26,1,0,0,7,2,1,2.99949,-13,-2,1,0,0,0,132,132,159,1,response5disk_3,rectangle,,,,,,,,,,,,,,,,,,,
,,,,,,,,,,,,,,,,,,,,,,,,,,,,,,,,,,,,,,,,,,,5eea256b9e506b0d09822cdc,5ff3a4a9cb7697a1f315237d,2021-01-04_23h28.57.048,Colour_Similarity_Experiment_v1,2020.1.2,Win32,60,5ff3a352adaa099f7659f8cc,,,,,,,,,,,,,,,,,,,,PF,,,,,,,,3,2.81089,,,,,,,,,,,,,,,,,,,,,,,,,,,,7,-52,-112,1,0,0,response5disk,8,134,-4,3,1,0,0,rectangle,-4,3,1,0,0,7,4,0,0.002175,-4,3,1,0,0,0,133,133,140,1,,,,,,,,,,,,,,,,,,,,,
,,,,,,,,,,,,,,,,,,,,,,,,,,,,,,,,,,,,,,,,,,,5eea256b9e506b0d09822cdc,5ff3a4a9cb7697a1f315237d,2021-01-04_23h28.57.048,Colour_Similarity_Experiment_v1,2020.1.2,Win32,60,5ff3a352adaa099f7659f8cc,,,,,,,,,,,,,,,,,,,,PF,,,,,,,,7,2.07388,,,,,,,,,,,,,,,,,,,,,,,,,,,,8,35,78,1,0,0,response1disk,6,135,9,4,1,0,0,rectangle,-66,-29,1,0,0,7,2,1,3.6856,-12,-5,1,0,0,0,134,134,161,1,response5disk_3,rectangle,,,,,,,,,,,,,,,,,,,
,,,,,,,,,,,,,,,,,,,,,,,,,,,,,,,,,,,,,,,,,,,5eea256b9e506b0d09822cdc,5ff3a4a9cb7697a1f315237d,2021-01-04_23h28.57.048,Colour_Similarity_Experiment_v1,2020.1.2,Win32,60,5ff3a352adaa099f7659f8cc,,,,,,,,,,,,,,,,,,,,FF,,,,,,,,7,2.66546,,,,,,,,,,,,,,,,,,,,,,,,,,,,8,37,89,1,0,0,response1disk,5,136,5,2,1,0,0,rectangle,5,2,1,0,0,7,5,0,0.00285,5,2,1,0,0,0,135,135,152,1,,,,,,,,,,,,,,,,,,,,,
,,,,,,,,,,,,,,,,,,,,,,,,,,,,,,,,,,,,,,,,,,,5eea256b9e506b0d09822cdc,5ff3a4a9cb7697a1f315237d,2021-01-04_23h28.57.048,Colour_Similarity_Experiment_v1,2020.1.2,Win32,60,5ff3a352adaa099f7659f8cc,,,,,,,,,,,,,,,,,,,,FF,,,,,,,,7,3.851825,,,,,,,,,,,,,,,,,,,,,,,,,,,,1,40,90,1,0,0,response1disk,4,137,8,5,1,0,0,rectangle,8,5,1,0,0,7,4,0,0.002245,8,5,1,0,0,0,136,136,135,1,,,,,,,,,,,,,,,,,,,,,
,,,,,,,,,,,,,,,,,,,,,,,,,,,,,,,,,,,,,,,,,,,5eea256b9e506b0d09822cdc,5ff3a4a9cb7697a1f315237d,2021-01-04_23h28.57.048,Colour_Similarity_Experiment_v1,2020.1.2,Win32,60,5ff3a352adaa099f7659f8cc,,,,,,,,,,,,,,,,,,,,FF,,,,,,,,7,2.183875,,,,,,,,,,,,,,,,,,,,,,,,,,,,2,47,92,1,0,0,response1disk,9,138,5,-7,1,0,0,rectangle,5,-7,1,0,0,7,6,0,0.00213,5,-7,1,0,0,0,137,137,72,1,,,,,,,,,,,,,,,,,,,,,
,,,,,,,,,,,,,,,,,,,,,,,,,,,,,,,,,,,,,,,,,,,5eea256b9e506b0d09822cdc,5ff3a4a9cb7697a1f315237d,2021-01-04_23h28.57.048,Colour_Similarity_Experiment_v1,2020.1.2,Win32,60,5ff3a352adaa099f7659f8cc,,,,,,,,,,,,,,,,,,,,PF,,,,,,,,1,2.77839,,,,,,,,,,,,,,,,,,,,,,,,,,,,6,-55,48,1,0,0,response7disk,6,139,-15,-5,1,0,0,rectangle,-15,-5,1,0,0,7,6,0,0.00236,-15,-5,1,0,0,0,138,138,0,1,,,,,,,,,,,,,,,,,,,,,
,,,,,,,,,,,,,,,,,,,,,,,,,,,,,,,,,,,,,,,,,,,5eea256b9e506b0d09822cdc,5ff3a4a9cb7697a1f315237d,2021-01-04_23h28.57.048,Colour_Similarity_Experiment_v1,2020.1.2,Win32,60,5ff3a352adaa099f7659f8cc,,,,,,,,,,,,,,,,,,,,PF,,,,,,,,3,2.24454,,,,,,,,,,,,,,,,,,,,,,,,,,,,7,-51,-75,1,0,0,response5disk,5,140,-12,-6,1,0,0,rectangle,-12,-6,1,0,0,7,7,0,0.00208,-12,-6,1,0,0,0,139,139,92,1,,,,,,,,,,,,,,,,,,,,,
,,,,,,,,,,,,,,,,,,,,,,,,,,,,,,,,,,,,,,,,,,,5eea256b9e506b0d09822cdc,5ff3a4a9cb7697a1f315237d,2021-01-04_23h28.57.048,Colour_Similarity_Experiment_v1,2020.1.2,Win32,60,5ff3a352adaa099f7659f8cc,,,,,,,,,,,,,,,,,,,,FF,,,,,,,,0,2.50432,,,,,,,,,,,,,,,,,,,,,,,,,,,,2,-55,101,1,0,0,response7disk,2,141,-9,-8,1,0,0,rectangle,-9,-8,1,0,0,7,3,0,0.0028,-9,-8,1,0,0,0,140,140,142,1,,,,,,,,,,,,,,,,,,,,,
,,,,,,,,,,,,,,,,,,,,,,,,,,,,,,,,,,,,,,,,,,,5eea256b9e506b0d09822cdc,5ff3a4a9cb7697a1f315237d,2021-01-04_23h28.57.048,Colour_Similarity_Experiment_v1,2020.1.2,Win32,60,5ff3a352adaa099f7659f8cc,,,,,,,,,,,,,,,,,,,,PF,,,,,,,,2,2.495645,,,,,,,,,,,,,,,,,,,,,,,,,,,,3,-78,-40,1,0,0,response5disk,2,142,-7,0,1,0,0,rectangle,-38,93,1,0,0,0,0,1,2.93204,-16,3,1,0,0,0,141,141,36,1,response7disk_3,rectangle,,,,,,,,,,,,,,,,,,,
,,,,,,,,,,,,,,,,,,,,,,,,,,,,,,,,,,,,,,,,,,,5eea256b9e506b0d09822cdc,5ff3a4a9cb7697a1f315237d,2021-01-04_23h28.57.048,Colour_Similarity_Experiment_v1,2020.1.2,Win32,60,5ff3a352adaa099f7659f8cc,,,,,,,,,,,,,,,,,,,,PF,,,,,,,,7,3.800725,,,,,,,,,,,,,,,,,,,,,,,,,,,,6,68,90,1,0,0,response1disk,1,143,-7,-4,1,0,0,rectangle,-7,-4,1,0,0,0,5,0,0.001915,-7,-4,1,0,0,0,142,142,46,1,,,,,,,,,,,,,,,,,,,,,
,,,,,,,,,,,,,,,,,,,,,,,,,,,,,,,,,,,,,,,,,,,5eea256b9e506b0d09822cdc,5ff3a4a9cb7697a1f315237d,2021-01-04_23h28.57.048,Colour_Similarity_Experiment_v1,2020.1.2,Win32,60,5ff3a352adaa099f7659f8cc,,,,,,,,,,,,,,,,,,,,FF,,,,,,,,7,2.0451,,,,,,,,,,,,,,,,,,,,,,,,,,,,3,27,67,1,0,0,response1disk,8,144,4,4,1,0,0,rectangle,4,4,1,0,0,0,7,0,0.004745,4,4,1,0,0,0,143,143,44,1,,,,,,,,,,,,,,,,,,,,,
,,,,,,,,,,,,,,,,,,,,,,,,,,,,,,,,,,,,,,,,,,,5eea256b9e506b0d09822cdc,5ff3a4a9cb7697a1f315237d,2021-01-04_23h28.57.048,Colour_Similarity_Experiment_v1,2020.1.2,Win32,60,5ff3a352adaa099f7659f8cc,,,,,,,,,,,,,,,,,,,,FF,,,,,,,,0,2.086545,,,,,,,,,,,,,,,,,,,,,,,,,,,,6,-54,74,1,0,0,response7disk,6,145,-24,10,1,0,0,rectangle,-24,10,1,0,0,0,3,0,0.002355,-24,10,1,0,0,0,144,144,91,1,,,,,,,,,,,,,,,,,,,,,
,,,,,,,,,,,,,,,,,,,,,,,,,,,,,,,,,,,,,,,,,,,5eea256b9e506b0d09822cdc,5ff3a4a9cb7697a1f315237d,2021-01-04_23h28.57.048,Colour_Similarity_Experiment_v1,2020.1.2,Win32,60,5ff3a352adaa099f7659f8cc,,,,,,,,,,,,,,,,,,,,PF,,,,,,,,4,2.525435,,,,,,,,,,,,,,,,,,,,,,,,,,,,5,23,-67,1,0,0,response3disk,8,146,1,-9,1,0,0,rectangle,1,-9,1,0,0,0,1,0,0.001865,1,-9,1,0,0,0,145,145,149,1,,,,,,,,,,,,,,,,,,,,,
,,,,,,,,,,,,,,,,,,,,,,,,,,,,,,,,,,,,,,,,,,,5eea256b9e506b0d09822cdc,5ff3a4a9cb7697a1f315237d,2021-01-04_23h28.57.048,Colour_Similarity_Experiment_v1,2020.1.2,Win32,60,5ff3a352adaa099f7659f8cc,,,,,,,,,,,,,,,,,,,,PF,,,,,,,,3,2.85464,,,,,,,,,,,,,,,,,,,,,,,,,,,,5,-43,-113,1,0,0,response5disk,6,147,3,1,1,0,0,rectangle,3,1,1,0,0,0,7,0,0.00196,3,1,1,0,0,0,146,146,103,1,,,,,,,,,,,,,,,,,,,,,
,,,,,,,,,,,,,,,,,,,,,,,,,,,,,,,,,,,,,,,,,,,5eea256b9e506b0d09822cdc,5ff3a4a9cb7697a1f315237d,2021-01-04_23h28.57.048,Colour_Similarity_Experiment_v1,2020.1.2,Win32,60,5ff3a352adaa099f7659f8cc,,,,,,,,,,,,,,,,,,,,FF,,,,,,,,4,2.4973,,,,,,,,,,,,,,,,,,,,,,,,,,,,3,34,-64,1,0,0,response3disk,5,148,7,8,1,0,0,rectangle,7,8,1,0,0,0,5,0,0.0289,7,8,1,0,0,0,147,147,101,1,,,,,,,,,,,,,,,,,,,,,
,,,,,,,,,,,,,,,,,,,,,,,,,,,,,,,,,,,,,,,,,,,5eea256b9e506b0d09822cdc,5ff3a4a9cb7697a1f315237d,2021-01-04_23h28.57.048,Colour_Similarity_Experiment_v1,2020.1.2,Win32,60,5ff3a352adaa099f7659f8cc,,,,,,,,,,,,,,,,,,,,PF,,,,,,,,7,2.341955,,,,,,,,,,,,,,,,,,,,,,,,,,,,2,31,89,1,0,0,response1disk,6,149,-5,5,1,0,0,rectangle,-5,5,1,0,0,0,5,0,0.002285,-5,5,1,0,0,0,148,148,113,1,,,,,,,,,,,,,,,,,,,,,
,,,,,,,,,,,,,,,,,,,,,,,,,,,,,,,,,,,,,,,,,,,5eea256b9e506b0d09822cdc,5ff3a4a9cb7697a1f315237d,2021-01-04_23h28.57.048,Colour_Similarity_Experiment_v1,2020.1.2,Win32,60,5ff3a352adaa099f7659f8cc,,,,,,,,,,,,,,,,,,,,PF,,,,,,,,4,2.619545,,,,,,,,,,,,,,,,,,,,,,,,,,,,5,39,-86,1,0,0,response3disk,7,150,8,2,1,0,0,rectangle,8,2,1,0,0,0,2,0,0.001815,8,2,1,0,0,0,149,149,146,1,,,,,,,,,,,,,,,,,,,,,
,,,,,,,,,,,,,,,,,,,,,,,,,,,,,,,,,,,,,,,,,,,5eea256b9e506b0d09822cdc,5ff3a4a9cb7697a1f315237d,2021-01-04_23h28.57.048,Colour_Similarity_Experiment_v1,2020.1.2,Win32,60,5ff3a352adaa099f7659f8cc,,,,,,,,,,,,,,,,,,,,PF,,,,,,,,7,2.157875,,,,,,,,,,,,,,,,,,,,,,,,,,,,4,31,95,1,0,0,response1disk,8,151,3,-7,1,0,0,rectangle,3,-7,1,0,0,0,1,0,0.00223,3,-7,1,0,0,0,150,150,124,1,,,,,,,,,,,,,,,,,,,,,
,,,,,,,,,,,,,,,,,,,,,,,,,,,,,,,,,,,,,,,,,,,5eea256b9e506b0d09822cdc,5ff3a4a9cb7697a1f315237d,2021-01-04_23h28.57.048,Colour_Similarity_Experiment_v1,2020.1.2,Win32,60,5ff3a352adaa099f7659f8cc,,,,,,,,,,,,,,,,,,,,PF,,,,,,,,7,2.013835,,,,,,,,,,,,,,,,,,,,,,,,,,,,1,48,89,1,0,0,response1disk,6,152,14,-8,1,0,0,rectangle,14,-8,1,0,0,0,2,0,0.00256,14,-8,1,0,0,0,151,151,144,1,,,,,,,,,,,,,,,,,,,,,
,,,,,,,,,,,,,,,,,,,,,,,,,,,,,,,,,,,,,,,,,,,5eea256b9e506b0d09822cdc,5ff3a4a9cb7697a1f315237d,2021-01-04_23h28.57.048,Colour_Similarity_Experiment_v1,2020.1.2,Win32,60,5ff3a352adaa099f7659f8cc,,,,,,,,,,,,,,,,,,,,FF,,,,,,,,4,4.89258,,,,,,,,,,,,,,,,,,,,,,,,,,,,7,36,-69,1,0,0,response3disk,5,153,5,3,1,0,0,rectangle,5,3,1,0,0,0,0,0,0.002355,5,3,1,0,0,0,152,152,156,1,,,,,,,,,,,,,,,,,,,,,
,,,,,,,,,,,,,,,,,,,,,,,,,,,,,,,,,,,,,,,,,,,5eea256b9e506b0d09822cdc,5ff3a4a9cb7697a1f315237d,2021-01-04_23h28.57.048,Colour_Similarity_Experiment_v1,2020.1.2,Win32,60,5ff3a352adaa099f7659f8cc,,,,,,,,,,,,,,,,,,,,FF,,,,,,,,7,4.65523,,,,,,,,,,,,,,,,,,,,,,,,,,,,4,25,70,1,0,0,response1disk,2,154,-7,-8,1,0,0,rectangle,-7,-8,1,0,0,0,0,0,0.00215,-7,-8,1,0,0,0,153,153,13,1,,,,,,,,,,,,,,,,,,,,,
,,,,,,,,,,,,,,,,,,,,,,,,,,,,,,,,,,,,,,,,,,,5eea256b9e506b0d09822cdc,5ff3a4a9cb7697a1f315237d,2021-01-04_23h28.57.048,Colour_Similarity_Experiment_v1,2020.1.2,Win32,60,5ff3a352adaa099f7659f8cc,,,,,,,,,,,,,,,,,,,,FF,,,,,,,,5,3.46459,,,,,,,,,,,,,,,,,,,,,,,,,,,,8,75,-31,1,0,0,response3disk,6,155,-6,0,1,0,0,rectangle,-6,0,1,0,0,0,1,0,0.002325,-6,0,1,0,0,0,154,154,37,1,,,,,,,,,,,,,,,,,,,,,
,,,,,,,,,,,,,,,,,,,,,,,,,,,,,,,,,,,,,,,,,,,5eea256b9e506b0d09822cdc,5ff3a4a9cb7697a1f315237d,2021-01-04_23h28.57.048,Colour_Similarity_Experiment_v1,2020.1.2,Win32,60,5ff3a352adaa099f7659f8cc,,,,,,,,,,,,,,,,,,,,FF,,,,,,,,7,2.366125,,,,,,,,,,,,,,,,,,,,,,,,,,,,8,28,66,1,0,0,response1disk,4,156,12,0,1,0,0,rectangle,12,0,1,0,0,0,5,0,0.00278,12,0,1,0,0,0,155,155,88,1,,,,,,,,,,,,,,,,,,,,,
,,,,,,,,,,,,,,,,,,,,,,,,,,,,,,,,,,,,,,,,,,,5eea256b9e506b0d09822cdc,5ff3a4a9cb7697a1f315237d,2021-01-04_23h28.57.048,Colour_Similarity_Experiment_v1,2020.1.2,Win32,60,5ff3a352adaa099f7659f8cc,,,,,,,,,,,,,,,,,,,,PF,,,,,,,,3,2.42986,,,,,,,,,,,,,,,,,,,,,,,,,,,,4,-40,-86,1,0,0,response5disk,3,157,1,-13,1,0,0,rectangle,1,-13,1,0,0,0,7,0,0.001975,1,-13,1,0,0,0,156,156,89,1,,,,,,,,,,,,,,,,,,,,,
,,,,,,,,,,,,,,,,,,,,,,,,,,,,,,,,,,,,,,,,,,,5eea256b9e506b0d09822cdc,5ff3a4a9cb7697a1f315237d,2021-01-04_23h28.57.048,Colour_Similarity_Experiment_v1,2020.1.2,Win32,60,5ff3a352adaa099f7659f8cc,,,,,,,,,,,,,,,,,,,,PF,,,,,,,,7,2.30258,,,,,,,,,,,,,,,,,,,,,,,,,,,,4,47,100,1,0,0,response1disk,5,158,4,7,1,0,0,rectangle,4,7,1,0,0,0,7,0,0.00323,4,7,1,0,0,0,157,157,49,1,,,,,,,,,,,,,,,,,,,,,
,,,,,,,,,,,,,,,,,,,,,,,,,,,,,,,,,,,,,,,,,,,5eea256b9e506b0d09822cdc,5ff3a4a9cb7697a1f315237d,2021-01-04_23h28.57.048,Colour_Similarity_Experiment_v1,2020.1.2,Win32,60,5ff3a352adaa099f7659f8cc,,,,,,,,,,,,,,,,,,,,PF,,,,,,,,7,2.42336,,,,,,,,,,,,,,,,,,,,,,,,,,,,9,42,84,1,0,0,response1disk,3,159,-1,1,1,0,0,rectangle,-1,1,1,0,0,0,2,0,0.00196,-1,1,1,0,0,0,158,158,119,1,,,,,,,,,,,,,,,,,,,,,
,,,,,,,,,,,,,,,,,,,,,,,,,,,,,,,,,,,,,,,,,,,5eea256b9e506b0d09822cdc,5ff3a4a9cb7697a1f315237d,2021-01-04_23h28.57.048,Colour_Similarity_Experiment_v1,2020.1.2,Win32,60,5ff3a352adaa099f7659f8cc,,,,,,,,,,,,,,,,,,,,FF,,,,,,,,6,2.54483,,,,,,,,,,,,,,,,,,,,,,,,,,,,4,59,29,1,0,0,response1disk,5,160,8,8,1,0,0,rectangle,8,8,1,0,0,0,7,0,0.002165,8,8,1,0,0,0,159,159,116,1,,,,,,,,,,,,,,,,,,,,,
,,,,,,,,,,,,,,,,,,,,,,,,,,,,,,,,,,,,,,,,,,,5eea256b9e506b0d09822cdc,5ff3a4a9cb7697a1f315237d,2021-01-04_23h28.57.048,Colour_Similarity_Experiment_v1,2020.1.2,Win32,60,5ff3a352adaa099f7659f8cc,,,,,,,,,,,,,,,,,,,,FF,,,,,,,,4,3.072105,,,,,,,,,,,,,,,,,,,,,,,,,,,,6,34,-88,1,0,0,response3disk,7,161,-2,0,1,0,0,rectangle,-2,0,1,0,0,0,4,0,0.14849,-2,0,1,0,0,0,160,160,18,1,,,,,,,,,,,,,,,,,,,,,
,,,,,,,,,,,,,,,,,,,,,,,,,,,,,,,,,,,,,,,,,,,5eea256b9e506b0d09822cdc,5ff3a4a9cb7697a1f315237d,2021-01-04_23h28.57.048,Colour_Similarity_Experiment_v1,2020.1.2,Win32,60,5ff3a352adaa099f7659f8cc,,,,,,,,,,,,,,,,,,,,PF,,,,,,,,6,2.708315,,,,,,,,,,,,,,,,,,,,,,,,,,,,6,83,51,1,0,0,response1disk,4,162,3,2,1,0,0,rectangle,3,2,1,0,0,0,2,0,0.002215,3,2,1,0,0,0,161,161,33,1,,,,,,,,,,,,,,,,,,,,,
,,,,,,,,,,,,,,,,,,,,,,,,,,,,,,,,,,,,,,,,,,,5eea256b9e506b0d09822cdc,5ff3a4a9cb7697a1f315237d,2021-01-04_23h28.57.048,Colour_Similarity_Experiment_v1,2020.1.2,Win32,60,5ff3a352adaa099f7659f8cc,,,,,,,,,,,,,,,,,,,,,,,,,,,,,,,,,,,,,,,,,,,,,,,,,,,,,,,,,,,,,,,,,,,,,,,,,,,,,,,,,,,,,,,,,,,,,0,0,0,0,1,,,,,,,,,,,,,,
,,,,,,,,,,,,,,,,,,,,,,,,,,,,,,,,,,,,,,,,,,,5eea256b9e506b0d09822cdc,5ff3a4a9cb7697a1f315237d,2021-01-04_23h28.57.048,Colour_Similarity_Experiment_v1,2020.1.2,Win32,60,5ff3a352adaa099f7659f8cc,,,,,,,,,,,,,,,,,,,,FF,,,,,,,,7,2.36626,,,,,,,,,,,,,,,,,,,,,,,,,,,,4,46,94,1,0,0,response1disk,2,163,4,12,1,0,0,rectangle,4,12,1,0,0,0,7,0,0.002225,4,12,1,0,0,0,0,0,13,1,,,,,,,,,,,,,,,,,,,,,
,,,,,,,,,,,,,,,,,,,,,,,,,,,,,,,,,,,,,,,,,,,5eea256b9e506b0d09822cdc,5ff3a4a9cb7697a1f315237d,2021-01-04_23h28.57.048,Colour_Similarity_Experiment_v1,2020.1.2,Win32,60,5ff3a352adaa099f7659f8cc,,,,,,,,,,,,,,,,,,,,PF,,,,,,,,2,3.311285,,,,,,,,,,,,,,,,,,,,,,,,,,,,3,-63,-59,1,0,0,response5disk,4,164,-13,5,1,0,0,rectangle,-13,5,1,0,0,0,7,0,0.00202,-13,5,1,0,0,0,1,1,30,1,,,,,,,,,,,,,,,,,,,,,
,,,,,,,,,,,,,,,,,,,,,,,,,,,,,,,,,,,,,,,,,,,5eea256b9e506b0d09822cdc,5ff3a4a9cb7697a1f315237d,2021-01-04_23h28.57.048,Colour_Similarity_Experiment_v1,2020.1.2,Win32,60,5ff3a352adaa099f7659f8cc,,,,,,,,,,,,,,,,,,,,PF,,,,,,,,7,2.21681,,,,,,,,,,,,,,,,,,,,,,,,,,,,4,57,95,1,0,0,response1disk,1,165,-7,-6,1,0,0,rectangle,-7,-6,1,0,0,0,5,0,0.00229,-7,-6,1,0,0,0,2,2,115,1,,,,,,,,,,,,,,,,,,,,,
,,,,,,,,,,,,,,,,,,,,,,,,,,,,,,,,,,,,,,,,,,,5eea256b9e506b0d09822cdc,5ff3a4a9cb7697a1f315237d,2021-01-04_23h28.57.048,Colour_Similarity_Experiment_v1,2020.1.2,Win32,60,5ff3a352adaa099f7659f8cc,,,,,,,,,,,,,,,,,,,,PF,,,,,,,,7,2.30451,,,,,,,,,,,,,,,,,,,,,,,,,,,,5,39,94,1,0,0,response1disk,1,166,1,2,1,0,0,rectangle,-35,-84,1,0,0,3,3,1,3.154245,1,10,1,0,0,0,3,3,159,1,response5disk_3,rectangle,,,,,,,,,,,,,,,,,,,
,,,,,,,,,,,,,,,,,,,,,,,,,,,,,,,,,,,,,,,,,,,5eea256b9e506b0d09822cdc,5ff3a4a9cb7697a1f315237d,2021-01-04_23h28.57.048,Colour_Similarity_Experiment_v1,2020.1.2,Win32,60,5ff3a352adaa099f7659f8cc,,,,,,,,,,,,,,,,,,,,PF,,,,,,,,7,2.37479,,,,,,,,,,,,,,,,,,,,,,,,,,,,1,32,76,1,0,0,response1disk,4,167,14,-1,1,0,0,rectangle,14,-1,1,0,0,3,7,0,0.00199,14,-1,1,0,0,0,4,4,139,1,,,,,,,,,,,,,,,,,,,,,
,,,,,,,,,,,,,,,,,,,,,,,,,,,,,,,,,,,,,,,,,,,5eea256b9e506b0d09822cdc,5ff3a4a9cb7697a1f315237d,2021-01-04_23h28.57.048,Colour_Similarity_Experiment_v1,2020.1.2,Win32,60,5ff3a352adaa099f7659f8cc,,,,,,,,,,,,,,,,,,,,FF,,,,,,,,7,2.20466,,,,,,,,,,,,,,,,,,,,,,,,,,,,7,32,74,1,0,0,response1disk,1,168,-4,-8,1,0,0,rectangle,-4,-8,1,0,0,3,4,0,0.00206,-4,-8,1,0,0,0,5,5,132,1,,,,,,,,,,,,,,,,,,,,,
,,,,,,,,,,,,,,,,,,,,,,,,,,,,,,,,,,,,,,,,,,,5eea256b9e506b0d09822cdc,5ff3a4a9cb7697a1f315237d,2021-01-04_23h28.57.048,Colour_Similarity_Experiment_v1,2020.1.2,Win32,60,5ff3a352adaa099f7659f8cc,,,,,,,,,,,,,,,,,,,,FF,,,,,,,,7,2.38614,,,,,,,,,,,,,,,,,,,,,,,,,,,,4,47,85,1,0,0,response1disk,8,169,4,-7,1,0,0,rectangle,4,-7,1,0,0,3,6,0,0.002045,4,-7,1,0,0,0,6,6,35,1,,,,,,,,,,,,,,,,,,,,,
,,,,,,,,,,,,,,,,,,,,,,,,,,,,,,,,,,,,,,,,,,,5eea256b9e506b0d09822cdc,5ff3a4a9cb7697a1f315237d,2021-01-04_23h28.57.048,Colour_Similarity_Experiment_v1,2020.1.2,Win32,60,5ff3a352adaa099f7659f8cc,,,,,,,,,,,,,,,,,,,,PF,,,,,,,,7,2.61932,,,,,,,,,,,,,,,,,,,,,,,,,,,,9,50,102,1,0,0,response1disk,3,170,-7,7,1,0,0,rectangle,-7,7,1,0,0,3,4,0,0.001975,-7,7,1,0,0,0,7,7,119,1,,,,,,,,,,,,,,,,,,,,,
,,,,,,,,,,,,,,,,,,,,,,,,,,,,,,,,,,,,,,,,,,,5eea256b9e506b0d09822cdc,5ff3a4a9cb7697a1f315237d,2021-01-04_23h28.57.048,Colour_Similarity_Experiment_v1,2020.1.2,Win32,60,5ff3a352adaa099f7659f8cc,,,,,,,,,,,,,,,,,,,,FF,,,,,,,,7,2.1713,,,,,,,,,,,,,,,,,,,,,,,,,,,,8,19,71,1,0,0,response1disk,1,171,5,-7,1,0,0,rectangle,5,-7,1,0,0,3,5,0,0.00291,5,-7,1,0,0,0,8,8,20,1,,,,,,,,,,,,,,,,,,,,,
,,,,,,,,,,,,,,,,,,,,,,,,,,,,,,,,,,,,,,,,,,,5eea256b9e506b0d09822cdc,5ff3a4a9cb7697a1f315237d,2021-01-04_23h28.57.048,Colour_Similarity_Experiment_v1,2020.1.2,Win32,60,5ff3a352adaa099f7659f8cc,,,,,,,,,,,,,,,,,,,,PF,,,,,,,,1,3.40558,,,,,,,,,,,,,,,,,,,,,,,,,,,,9,-82,38,1,0,0,response7disk,9,172,2,0,1,0,0,rectangle,2,0,1,0,0,3,4,0,0.151155,2,0,1,0,0,0,9,9,106,1,,,,,,,,,,,,,,,,,,,,,
,,,,,,,,,,,,,,,,,,,,,,,,,,,,,,,,,,,,,,,,,,,5eea256b9e506b0d09822cdc,5ff3a4a9cb7697a1f315237d,2021-01-04_23h28.57.048,Colour_Similarity_Experiment_v1,2020.1.2,Win32,60,5ff3a352adaa099f7659f8cc,,,,,,,,,,,,,,,,,,,,FF,,,,,,,,1,2.209395,,,,,,,,,,,,,,,,,,,,,,,,,,,,5,-75,33,1,0,0,response7disk,6,173,-8,-3,1,0,0,rectangle,-8,-3,1,0,0,3,2,0,0.00183,-8,-3,1,0,0,0,10,10,12,1,,,,,,,,,,,,,,,,,,,,,
,,,,,,,,,,,,,,,,,,,,,,,,,,,,,,,,,,,,,,,,,,,5eea256b9e506b0d09822cdc,5ff3a4a9cb7697a1f315237d,2021-01-04_23h28.57.048,Colour_Similarity_Experiment_v1,2020.1.2,Win32,60,5ff3a352adaa099f7659f8cc,,,,,,,,,,,,,,,,,,,,PF,,,,,,,,7,3.40985,,,,,,,,,,,,,,,,,,,,,,,,,,,,9,65,91,1,0,0,response1disk,4,174,1,-2,1,0,0,rectangle,1,-2,1,0,0,3,2,0,0.00202,1,-2,1,0,0,0,11,11,114,1,,,,,,,,,,,,,,,,,,,,,
,,,,,,,,,,,,,,,,,,,,,,,,,,,,,,,,,,,,,,,,,,,5eea256b9e506b0d09822cdc,5ff3a4a9cb7697a1f315237d,2021-01-04_23h28.57.048,Colour_Similarity_Experiment_v1,2020.1.2,Win32,60,5ff3a352adaa099f7659f8cc,,,,,,,,,,,,,,,,,,,,PF,,,,,,,,7,2.552655,,,,,,,,,,,,,,,,,,,,,,,,,,,,1,39,98,1,0,0,response1disk,3,175,8,2,1,0,0,rectangle,8,2,1,0,0,3,3,0,0.00204,8,2,1,0,0,0,12,12,1,1,,,,,,,,,,,,,,,,,,,,,
,,,,,,,,,,,,,,,,,,,,,,,,,,,,,,,,,,,,,,,,,,,5eea256b9e506b0d09822cdc,5ff3a4a9cb7697a1f315237d,2021-01-04_23h28.57.048,Colour_Similarity_Experiment_v1,2020.1.2,Win32,60,5ff3a352adaa099f7659f8cc,,,,,,,,,,,,,,,,,,,,PF,,,,,,,,7,2.15544,,,,,,,,,,,,,,,,,,,,,,,,,,,,7,43,72,1,0,0,response1disk,2,176,4,-4,1,0,0,rectangle,4,-4,1,0,0,3,1,0,0.00214,4,-4,1,0,0,0,13,13,32,1,,,,,,,,,,,,,,,,,,,,,
,,,,,,,,,,,,,,,,,,,,,,,,,,,,,,,,,,,,,,,,,,,5eea256b9e506b0d09822cdc,5ff3a4a9cb7697a1f315237d,2021-01-04_23h28.57.048,Colour_Similarity_Experiment_v1,2020.1.2,Win32,60,5ff3a352adaa099f7659f8cc,,,,,,,,,,,,,,,,,,,,FF,,,,,,,,7,2.2456,,,,,,,,,,,,,,,,,,,,,,,,,,,,9,46,92,1,0,0,response1disk,2,177,6,0,1,0,0,rectangle,-69,-23,1,0,0,3,2,1,3.38098,-6,-4,1,0,0,0,14,14,11,1,response5disk_3,rectangle,,,,,,,,,,,,,,,,,,,
,,,,,,,,,,,,,,,,,,,,,,,,,,,,,,,,,,,,,,,,,,,5eea256b9e506b0d09822cdc,5ff3a4a9cb7697a1f315237d,2021-01-04_23h28.57.048,Colour_Similarity_Experiment_v1,2020.1.2,Win32,60,5ff3a352adaa099f7659f8cc,,,,,,,,,,,,,,,,,,,,PF,,,,,,,,4,2.84691,,,,,,,,,,,,,,,,,,,,,,,,,,,,3,35,-97,1,0,0,response3disk,5,178,-17,7,1,0,0,rectangle,-17,7,1,0,0,3,5,0,0.00207,-17,7,1,0,0,0,15,15,66,1,,,,,,,,,,,,,,,,,,,,,
,,,,,,,,,,,,,,,,,,,,,,,,,,,,,,,,,,,,,,,,,,,5eea256b9e506b0d09822cdc,5ff3a4a9cb7697a1f315237d,2021-01-04_23h28.57.048,Colour_Similarity_Experiment_v1,2020.1.2,Win32,60,5ff3a352adaa099f7659f8cc,,,,,,,,,,,,,,,,,,,,PF,,,,,,,,4,2.683475,,,,,,,,,,,,,,,,,,,,,,,,,,,,7,48,-72,1,0,0,response3disk,5,179,-6,1,1,0,0,rectangle,-6,1,1,0,0,3,7,0,0.00184,-6,1,1,0,0,0,16,16,92,1,,,,,,,,,,,,,,,,,,,,,
,,,,,,,,,,,,,,,,,,,,,,,,,,,,,,,,,,,,,,,,,,,5eea256b9e506b0d09822cdc,5ff3a4a9cb7697a1f315237d,2021-01-04_23h28.57.048,Colour_Similarity_Experiment_v1,2020.1.2,Win32,60,5ff3a352adaa099f7659f8cc,,,,,,,,,,,,,,,,,,,,PF,,,,,,,,0,2.32567,,,,,,,,,,,,,,,,,,,,,,,,,,,,7,-72,87,1,0,0,response7disk,7,180,2,-4,1,0,0,rectangle,2,-4,1,0,0,3,1,0,0.05132,2,-4,1,0,0,0,17,17,51,1,,,,,,,,,,,,,,,,,,,,,
,,,,,,,,,,,,,,,,,,,,,,,,,,,,,,,,,,,,,,,,,,,5eea256b9e506b0d09822cdc,5ff3a4a9cb7697a1f315237d,2021-01-04_23h28.57.048,Colour_Similarity_Experiment_v1,2020.1.2,Win32,60,5ff3a352adaa099f7659f8cc,,,,,,,,,,,,,,,,,,,,FF,,,,,,,,5,2.585415,,,,,,,,,,,,,,,,,,,,,,,,,,,,1,63,-34,1,0,0,response3disk,2,181,0,12,1,0,0,rectangle,0,12,1,0,0,3,2,0,0.00239,0,12,1,0,0,0,18,18,2,1,,,,,,,,,,,,,,,,,,,,,
,,,,,,,,,,,,,,,,,,,,,,,,,,,,,,,,,,,,,,,,,,,5eea256b9e506b0d09822cdc,5ff3a4a9cb7697a1f315237d,2021-01-04_23h28.57.048,Colour_Similarity_Experiment_v1,2020.1.2,Win32,60,5ff3a352adaa099f7659f8cc,,,,,,,,,,,,,,,,,,,,PF,,,,,,,,1,2.797515,,,,,,,,,,,,,,,,,,,,,,,,,,,,6,-69,46,1,0,0,response7disk,5,182,-7,10,1,0,0,rectangle,-7,10,1,0,0,3,5,0,0.00184,-7,10,1,0,0,0,19,19,59,1,,,,,,,,,,,,,,,,,,,,,
,,,,,,,,,,,,,,,,,,,,,,,,,,,,,,,,,,,,,,,,,,,5eea256b9e506b0d09822cdc,5ff3a4a9cb7697a1f315237d,2021-01-04_23h28.57.048,Colour_Similarity_Experiment_v1,2020.1.2,Win32,60,5ff3a352adaa099f7659f8cc,,,,,,,,,,,,,,,,,,,,PF,,,,,,,,7,2.267525,,,,,,,,,,,,,,,,,,,,,,,,,,,,6,52,113,1,0,0,response1disk,9,183,-11,-3,1,0,0,rectangle,-11,-3,1,0,0,3,0,0,0.00193,-11,-3,1,0,0,0,20,20,45,1,,,,,,,,,,,,,,,,,,,,,
,,,,,,,,,,,,,,,,,,,,,,,,,,,,,,,,,,,,,,,,,,,5eea256b9e506b0d09822cdc,5ff3a4a9cb7697a1f315237d,2021-01-04_23h28.57.048,Colour_Similarity_Experiment_v1,2020.1.2,Win32,60,5ff3a352adaa099f7659f8cc,,,,,,,,,,,,,,,,,,,,FF,,,,,,,,7,2.729025,,,,,,,,,,,,,,,,,,,,,,,,,,,,4,28,75,1,0,0,response1disk,1,184,-2,-1,1,0,0,rectangle,-2,-1,1,0,0,3,4,0,0.001995,-2,-1,1,0,0,0,21,21,102,1,,,,,,,,,,,,,,,,,,,,,
,,,,,,,,,,,,,,,,,,,,,,,,,,,,,,,,,,,,,,,,,,,5eea256b9e506b0d09822cdc,5ff3a4a9cb7697a1f315237d,2021-01-04_23h28.57.048,Colour_Similarity_Experiment_v1,2020.1.2,Win32,60,5ff3a352adaa099f7659f8cc,,,,,,,,,,,,,,,,,,,,FF,,,,,,,,5,2.974705,,,,,,,,,,,,,,,,,,,,,,,,,,,,5,83,-48,1,0,0,response3disk,8,185,9,3,1,0,0,rectangle,9,3,1,0,0,3,4,0,0.00203,9,3,1,0,0,0,22,22,16,1,,,,,,,,,,,,,,,,,,,,,
,,,,,,,,,,,,,,,,,,,,,,,,,,,,,,,,,,,,,,,,,,,5eea256b9e506b0d09822cdc,5ff3a4a9cb7697a1f315237d,2021-01-04_23h28.57.048,Colour_Similarity_Experiment_v1,2020.1.2,Win32,60,5ff3a352adaa099f7659f8cc,,,,,,,,,,,,,,,,,,,,FF,,,,,,,,3,2.449005,,,,,,,,,,,,,,,,,,,,,,,,,,,,7,-58,-95,1,0,0,response5disk,6,186,-11,-10,1,0,0,rectangle,-11,-10,1,0,0,3,2,0,0.002145,-11,-10,1,0,0,0,23,23,31,1,,,,,,,,,,,,,,,,,,,,,
,,,,,,,,,,,,,,,,,,,,,,,,,,,,,,,,,,,,,,,,,,,5eea256b9e506b0d09822cdc,5ff3a4a9cb7697a1f315237d,2021-01-04_23h28.57.048,Colour_Similarity_Experiment_v1,2020.1.2,Win32,60,5ff3a352adaa099f7659f8cc,,,,,,,,,,,,,,,,,,,,PF,,,,,,,,1,2.17792,,,,,,,,,,,,,,,,,,,,,,,,,,,,6,-56,36,1,0,0,response7disk,6,187,-3,9,1,0,0,rectangle,-3,9,1,0,0,3,6,0,0.002055,-3,9,1,0,0,0,24,24,0,1,,,,,,,,,,,,,,,,,,,,,
,,,,,,,,,,,,,,,,,,,,,,,,,,,,,,,,,,,,,,,,,,,5eea256b9e506b0d09822cdc,5ff3a4a9cb7697a1f315237d,2021-01-04_23h28.57.048,Colour_Similarity_Experiment_v1,2020.1.2,Win32,60,5ff3a352adaa099f7659f8cc,,,,,,,,,,,,,,,,,,,,PF,,,,,,,,7,2.645565,,,,,,,,,,,,,,,,,,,,,,,,,,,,5,54,86,1,0,0,response1disk,8,188,3,4,1,0,0,rectangle,3,4,1,0,0,3,3,0,0.00251,3,4,1,0,0,0,25,25,149,1,,,,,,,,,,,,,,,,,,,,,
,,,,,,,,,,,,,,,,,,,,,,,,,,,,,,,,,,,,,,,,,,,5eea256b9e506b0d09822cdc,5ff3a4a9cb7697a1f315237d,2021-01-04_23h28.57.048,Colour_Similarity_Experiment_v1,2020.1.2,Win32,60,5ff3a352adaa099f7659f8cc,,,,,,,,,,,,,,,,,,,,PF,,,,,,,,3,3.90954,,,,,,,,,,,,,,,,,,,,,,,,,,,,3,-38,-88,1,0,0,response5disk,2,189,6,-5,1,0,0,rectangle,96,-53,1,0,0,5,5,1,3.53849,5,7,1,0,0,0,26,26,36,1,response3disk_3,rectangle,,,,,,,,,,,,,,,,,,,
,,,,,,,,,,,,,,,,,,,,,,,,,,,,,,,,,,,,,,,,,,,5eea256b9e506b0d09822cdc,5ff3a4a9cb7697a1f315237d,2021-01-04_23h28.57.048,Colour_Similarity_Experiment_v1,2020.1.2,Win32,60,5ff3a352adaa099f7659f8cc,,,,,,,,,,,,,,,,,,,,PF,,,,,,,,7,2.9158,,,,,,,,,,,,,,,,,,,,,,,,,,,,3,51,88,1,0,0,response1disk,6,190,2,1,1,0,0,rectangle,2,1,1,0,0,5,1,0,0.002085,2,1,1,0,0,0,27,27,47,1,,,,,,,,,,,,,,,,,,,,,
,,,,,,,,,,,,,,,,,,,,,,,,,,,,,,,,,,,,,,,,,,,5eea256b9e506b0d09822cdc,5ff3a4a9cb7697a1f315237d,2021-01-04_23h28.57.048,Colour_Similarity_Experiment_v1,2020.1.2,Win32,60,5ff3a352adaa099f7659f8cc,,,,,,,,,,,,,,,,,,,,PF,,,,,,,,7,2.72843,,,,,,,,,,,,,,,,,,,,,,,,,,,,7,30,75,1,0,0,response1disk,3,191,-8,9,1,0,0,rectangle,-8,9,1,0,0,5,3,0,0.002715,-8,9,1,0,0,0,28,28,81,1,,,,,,,,,,,,,,,,,,,,,
,,,,,,,,,,,,,,,,,,,,,,,,,,,,,,,,,,,,,,,,,,,5eea256b9e506b0d09822cdc,5ff3a4a9cb7697a1f315237d,2021-01-04_23h28.57.048,Colour_Similarity_Experiment_v1,2020.1.2,Win32,60,5ff3a352adaa099f7659f8cc,,,,,,,,,,,,,,,,,,,,FF,,,,,,,,7,5.94942,,,,,,,,,,,,,,,,,,,,,,,,,,,,7,33,91,1,0,0,response1disk,3,192,-9,9,1,0,0,rectangle,-9,9,1,0,0,5,3,0,0.002105,-9,9,1,0,0,0,29,29,73,1,,,,,,,,,,,,,,,,,,,,,
,,,,,,,,,,,,,,,,,,,,,,,,,,,,,,,,,,,,,,,,,,,5eea256b9e506b0d09822cdc,5ff3a4a9cb7697a1f315237d,2021-01-04_23h28.57.048,Colour_Similarity_Experiment_v1,2020.1.2,Win32,60,5ff3a352adaa099f7659f8cc,,,,,,,,,,,,,,,,,,,,PF,,,,,,,,7,2.882615,,,,,,,,,,,,,,,,,,,,,,,,,,,,2,39,79,1,0,0,response1disk,7,193,5,6,1,0,0,rectangle,5,6,1,0,0,5,3,0,0.002015,5,6,1,0,0,0,30,30,107,1,,,,,,,,,,,,,,,,,,,,,
,,,,,,,,,,,,,,,,,,,,,,,,,,,,,,,,,,,,,,,,,,,5eea256b9e506b0d09822cdc,5ff3a4a9cb7697a1f315237d,2021-01-04_23h28.57.048,Colour_Similarity_Experiment_v1,2020.1.2,Win32,60,5ff3a352adaa099f7659f8cc,,,,,,,,,,,,,,,,,,,,FF,,,,,,,,7,2.759235,,,,,,,,,,,,,,,,,,,,,,,,,,,,2,24,78,1,0,0,response1disk,7,194,-5,8,1,0,0,rectangle,-5,8,1,0,0,5,4,0,0.00253,-5,8,1,0,0,0,31,31,63,1,,,,,,,,,,,,,,,,,,,,,
,,,,,,,,,,,,,,,,,,,,,,,,,,,,,,,,,,,,,,,,,,,5eea256b9e506b0d09822cdc,5ff3a4a9cb7697a1f315237d,2021-01-04_23h28.57.048,Colour_Similarity_Experiment_v1,2020.1.2,Win32,60,5ff3a352adaa099f7659f8cc,,,,,,,,,,,,,,,,,,,,PF,,,,,,,,7,2.615725,,,,,,,,,,,,,,,,,,,,,,,,,,,,9,35,67,1,0,0,response1disk,5,195,-13,9,1,0,0,rectangle,-13,9,1,0,0,5,6,0,0.00231,-13,9,1,0,0,0,32,32,134,1,,,,,,,,,,,,,,,,,,,,,
,,,,,,,,,,,,,,,,,,,,,,,,,,,,,,,,,,,,,,,,,,,5eea256b9e506b0d09822cdc,5ff3a4a9cb7697a1f315237d,2021-01-04_23h28.57.048,Colour_Similarity_Experiment_v1,2020.1.2,Win32,60,5ff3a352adaa099f7659f8cc,,,,,,,,,,,,,,,,,,,,PF,,,,,,,,0,4.86726,,,,,,,,,,,,,,,,,,,,,,,,,,,,1,-68,91,1,0,0,response7disk,1,196,10,1,1,0,0,rectangle,-45,83,1,0,0,0,0,1,4.53947,-9,7,1,0,0,0,33,33,76,1,response7disk_3,rectangle,,,,,,,,,,,,,,,,,,,
,,,,,,,,,,,,,,,,,,,,,,,,,,,,,,,,,,,,,,,,,,,5eea256b9e506b0d09822cdc,5ff3a4a9cb7697a1f315237d,2021-01-04_23h28.57.048,Colour_Similarity_Experiment_v1,2020.1.2,Win32,60,5ff3a352adaa099f7659f8cc,,,,,,,,,,,,,,,,,,,,FF,,,,,,,,0,2.26146,,,,,,,,,,,,,,,,,,,,,,,,,,,,8,-46,64,1,0,0,response7disk,8,197,-22,11,1,0,0,rectangle,-22,11,1,0,0,0,3,0,0.002515,-22,11,1,0,0,0,34,34,48,1,,,,,,,,,,,,,,,,,,,,,
,,,,,,,,,,,,,,,,,,,,,,,,,,,,,,,,,,,,,,,,,,,5eea256b9e506b0d09822cdc,5ff3a4a9cb7697a1f315237d,2021-01-04_23h28.57.048,Colour_Similarity_Experiment_v1,2020.1.2,Win32,60,5ff3a352adaa099f7659f8cc,,,,,,,,,,,,,,,,,,,,PF,,,,,,,,5,4.270365,,,,,,,,,,,,,,,,,,,,,,,,,,,,2,89,-44,1,0,0,response3disk,9,198,-5,2,1,0,0,rectangle,-5,2,1,0,0,0,0,0,0.004215,-5,2,1,0,0,0,35,35,39,1,,,,,,,,,,,,,,,,,,,,,
,,,,,,,,,,,,,,,,,,,,,,,,,,,,,,,,,,,,,,,,,,,5eea256b9e506b0d09822cdc,5ff3a4a9cb7697a1f315237d,2021-01-04_23h28.57.048,Colour_Similarity_Experiment_v1,2020.1.2,Win32,60,5ff3a352adaa099f7659f8cc,,,,,,,,,,,,,,,,,,,,FF,,,,,,,,4,3.88659,,,,,,,,,,,,,,,,,,,,,,,,,,,,4,52,-67,1,0,0,response3disk,5,199,0,1,1,0,0,rectangle,0,1,1,0,0,0,5,0,0.00199,0,1,1,0,0,0,36,36,116,1,,,,,,,,,,,,,,,,,,,,,
,,,,,,,,,,,,,,,,,,,,,,,,,,,,,,,,,,,,,,,,,,,5eea256b9e506b0d09822cdc,5ff3a4a9cb7697a1f315237d,2021-01-04_23h28.57.048,Colour_Similarity_Experiment_v1,2020.1.2,Win32,60,5ff3a352adaa099f7659f8cc,,,,,,,,,,,,,,,,,,,,FF,,,,,,,,7,2.36793,,,,,,,,,,,,,,,,,,,,,,,,,,,,5,23,67,1,0,0,response1disk,9,200,-1,3,1,0,0,rectangle,-1,3,1,0,0,0,5,0,0.002265,-1,3,1,0,0,0,37,37,61,1,,,,,,,,,,,,,,,,,,,,,
,,,,,,,,,,,,,,,,,,,,,,,,,,,,,,,,,,,,,,,,,,,5eea256b9e506b0d09822cdc,5ff3a4a9cb7697a1f315237d,2021-01-04_23h28.57.048,Colour_Similarity_Experiment_v1,2020.1.2,Win32,60,5ff3a352adaa099f7659f8cc,,,,,,,,,,,,,,,,,,,,PF,,,,,,,,2,3.07026,,,,,,,,,,,,,,,,,,,,,,,,,,,,5,-96,-45,1,0,0,response5disk,6,201,0,9,1,0,0,rectangle,0,9,1,0,0,0,1,0,0.00234,0,9,1,0,0,0,38,38,103,1,,,,,,,,,,,,,,,,,,,,,
,,,,,,,,,,,,,,,,,,,,,,,,,,,,,,,,,,,,,,,,,,,5eea256b9e506b0d09822cdc,5ff3a4a9cb7697a1f315237d,2021-01-04_23h28.57.048,Colour_Similarity_Experiment_v1,2020.1.2,Win32,60,5ff3a352adaa099f7659f8cc,,,,,,,,,,,,,,,,,,,,FF,,,,,,,,7,5.097595,,,,,,,,,,,,,,,,,,,,,,,,,,,,7,39,97,1,0,0,response1disk,9,202,-5,3,1,0,0,rectangle,-5,3,1,0,0,0,0,0,0.00313,-5,3,1,0,0,0,39,39,155,1,,,,,,,,,,,,,,,,,,,,,
,,,,,,,,,,,,,,,,,,,,,,,,,,,,,,,,,,,,,,,,,,,5eea256b9e506b0d09822cdc,5ff3a4a9cb7697a1f315237d,2021-01-04_23h28.57.048,Colour_Similarity_Experiment_v1,2020.1.2,Win32,60,5ff3a352adaa099f7659f8cc,,,,,,,,,,,,,,,,,,,,FF,,,,,,,,7,2.77492,,,,,,,,,,,,,,,,,,,,,,,,,,,,9,51,89,1,0,0,response1disk,7,203,-2,2,1,0,0,rectangle,-2,2,1,0,0,0,1,0,0.003865,-2,2,1,0,0,0,40,40,100,1,,,,,,,,,,,,,,,,,,,,,
,,,,,,,,,,,,,,,,,,,,,,,,,,,,,,,,,,,,,,,,,,,5eea256b9e506b0d09822cdc,5ff3a4a9cb7697a1f315237d,2021-01-04_23h28.57.048,Colour_Similarity_Experiment_v1,2020.1.2,Win32,60,5ff3a352adaa099f7659f8cc,,,,,,,,,,,,,,,,,,,,PF,,,,,,,,5,2.65065,,,,,,,,,,,,,,,,,,,,,,,,,,,,6,83,-44,1,0,0,response3disk,4,204,-15,8,1,0,0,rectangle,-15,8,1,0,0,0,3,0,0.002125,-15,8,1,0,0,0,41,41,33,1,,,,,,,,,,,,,,,,,,,,,
,,,,,,,,,,,,,,,,,,,,,,,,,,,,,,,,,,,,,,,,,,,5eea256b9e506b0d09822cdc,5ff3a4a9cb7697a1f315237d,2021-01-04_23h28.57.048,Colour_Similarity_Experiment_v1,2020.1.2,Win32,60,5ff3a352adaa099f7659f8cc,,,,,,,,,,,,,,,,,,,,FF,,,,,,,,7,2.78109,,,,,,,,,,,,,,,,,,,,,,,,,,,,3,41,83,1,0,0,response1disk,9,205,6,8,1,0,0,rectangle,6,8,1,0,0,0,2,0,0.002655,6,8,1,0,0,0,42,42,143,1,,,,,,,,,,,,,,,,,,,,,
,,,,,,,,,,,,,,,,,,,,,,,,,,,,,,,,,,,,,,,,,,,5eea256b9e506b0d09822cdc,5ff3a4a9cb7697a1f315237d,2021-01-04_23h28.57.048,Colour_Similarity_Experiment_v1,2020.1.2,Win32,60,5ff3a352adaa099f7659f8cc,,,,,,,,,,,,,,,,,,,,FF,,,,,,,,7,2.61169,,,,,,,,,,,,,,,,,,,,,,,,,,,,3,41,91,1,0,0,response1disk,1,206,-6,6,1,0,0,rectangle,-6,6,1,0,0,0,3,0,0.00212,-6,6,1,0,0,0,43,43,125,1,,,,,,,,,,,,,,,,,,,,,
,,,,,,,,,,,,,,,,,,,,,,,,,,,,,,,,,,,,,,,,,,,5eea256b9e506b0d09822cdc,5ff3a4a9cb7697a1f315237d,2021-01-04_23h28.57.048,Colour_Similarity_Experiment_v1,2020.1.2,Win32,60,5ff3a352adaa099f7659f8cc,,,,,,,,,,,,,,,,,,,,FF,,,,,,,,0,6.669785,,,,,,,,,,,,,,,,,,,,,,,,,,,,6,-38,100,1,0,0,response7disk,6,207,3,10,1,0,0,rectangle,3,10,1,0,0,0,4,0,0.00233,3,10,1,0,0,0,44,44,91,1,,,,,,,,,,,,,,,,,,,,,
,,,,,,,,,,,,,,,,,,,,,,,,,,,,,,,,,,,,,,,,,,,5eea256b9e506b0d09822cdc,5ff3a4a9cb7697a1f315237d,2021-01-04_23h28.57.048,Colour_Similarity_Experiment_v1,2020.1.2,Win32,60,5ff3a352adaa099f7659f8cc,,,,,,,,,,,,,,,,,,,,FF,,,,,,,,7,5.20984,,,,,,,,,,,,,,,,,,,,,,,,,,,,2,41,115,1,0,0,response1disk,4,208,-2,9,1,0,0,rectangle,-2,9,1,0,0,0,1,0,0.002235,-2,9,1,0,0,0,45,45,145,1,,,,,,,,,,,,,,,,,,,,,
,,,,,,,,,,,,,,,,,,,,,,,,,,,,,,,,,,,,,,,,,,,5eea256b9e506b0d09822cdc,5ff3a4a9cb7697a1f315237d,2021-01-04_23h28.57.048,Colour_Similarity_Experiment_v1,2020.1.2,Win32,60,5ff3a352adaa099f7659f8cc,,,,,,,,,,,,,,,,,,,,FF,,,,,,,,4,3.92437,,,,,,,,,,,,,,,,,,,,,,,,,,,,5,54,-71,1,0,0,response3disk,7,209,5,-1,1,0,0,rectangle,5,-1,1,0,0,0,1,0,0.001925,5,-1,1,0,0,0,46,46,7,1,,,,,,,,,,,,,,,,,,,,,
,,,,,,,,,,,,,,,,,,,,,,,,,,,,,,,,,,,,,,,,,,,5eea256b9e506b0d09822cdc,5ff3a4a9cb7697a1f315237d,2021-01-04_23h28.57.048,Colour_Similarity_Experiment_v1,2020.1.2,Win32,60,5ff3a352adaa099f7659f8cc,,,,,,,,,,,,,,,,,,,,FF,,,,,,,,7,4.41311,,,,,,,,,,,,,,,,,,,,,,,,,,,,4,39,86,1,0,0,response1disk,7,210,7,6,1,0,0,rectangle,7,6,1,0,0,0,7,0,0.001915,7,6,1,0,0,0,47,47,87,1,,,,,,,,,,,,,,,,,,,,,
,,,,,,,,,,,,,,,,,,,,,,,,,,,,,,,,,,,,,,,,,,,5eea256b9e506b0d09822cdc,5ff3a4a9cb7697a1f315237d,2021-01-04_23h28.57.048,Colour_Similarity_Experiment_v1,2020.1.2,Win32,60,5ff3a352adaa099f7659f8cc,,,,,,,,,,,,,,,,,,,,FF,,,,,,,,1,2.13038,,,,,,,,,,,,,,,,,,,,,,,,,,,,5,-81,45,1,0,0,response7disk,5,211,11,-2,1,0,0,rectangle,11,-2,1,0,0,0,6,0,0.0021,11,-2,1,0,0,0,48,48,19,1,,,,,,,,,,,,,,,,,,,,,
,,,,,,,,,,,,,,,,,,,,,,,,,,,,,,,,,,,,,,,,,,,5eea256b9e506b0d09822cdc,5ff3a4a9cb7697a1f315237d,2021-01-04_23h28.57.048,Colour_Similarity_Experiment_v1,2020.1.2,Win32,60,5ff3a352adaa099f7659f8cc,,,,,,,,,,,,,,,,,,,,FF,,,,,,,,0,2.92424,,,,,,,,,,,,,,,,,,,,,,,,,,,,3,-26,86,1,0,0,response7disk,3,212,4,3,1,0,0,rectangle,4,3,1,0,0,0,6,0,0.00202,4,3,1,0,0,0,49,49,68,1,,,,,,,,,,,,,,,,,,,,,
,,,,,,,,,,,,,,,,,,,,,,,,,,,,,,,,,,,,,,,,,,,5eea256b9e506b0d09822cdc,5ff3a4a9cb7697a1f315237d,2021-01-04_23h28.57.048,Colour_Similarity_Experiment_v1,2020.1.2,Win32,60,5ff3a352adaa099f7659f8cc,,,,,,,,,,,,,,,,,,,,FF,,,,,,,,7,2.674775,,,,,,,,,,,,,,,,,,,,,,,,,,,,1,35,91,1,0,0,response1disk,7,213,6,5,1,0,0,rectangle,6,5,1,0,0,0,2,0,0.004655,6,5,1,0,0,0,50,50,137,1,,,,,,,,,,,,,,,,,,,,,
,,,,,,,,,,,,,,,,,,,,,,,,,,,,,,,,,,,,,,,,,,,5eea256b9e506b0d09822cdc,5ff3a4a9cb7697a1f315237d,2021-01-04_23h28.57.048,Colour_Similarity_Experiment_v1,2020.1.2,Win32,60,5ff3a352adaa099f7659f8cc,,,,,,,,,,,,,,,,,,,,FF,,,,,,,,7,3.034025,,,,,,,,,,,,,,,,,,,,,,,,,,,,9,38,105,1,0,0,response1disk,4,214,1,1,1,0,0,rectangle,1,1,1,0,0,0,3,0,0.002325,1,1,1,0,0,0,51,51,60,1,,,,,,,,,,,,,,,,,,,,,
,,,,,,,,,,,,,,,,,,,,,,,,,,,,,,,,,,,,,,,,,,,5eea256b9e506b0d09822cdc,5ff3a4a9cb7697a1f315237d,2021-01-04_23h28.57.048,Colour_Similarity_Experiment_v1,2020.1.2,Win32,60,5ff3a352adaa099f7659f8cc,,,,,,,,,,,,,,,,,,,,PF,,,,,,,,7,2.48322,,,,,,,,,,,,,,,,,,,,,,,,,,,,1,33,93,1,0,0,response1disk,6,215,-1,7,1,0,0,rectangle,-1,7,1,0,0,0,5,0,0.002395,-1,7,1,0,0,0,52,52,144,1,,,,,,,,,,,,,,,,,,,,,
,,,,,,,,,,,,,,,,,,,,,,,,,,,,,,,,,,,,,,,,,,,5eea256b9e506b0d09822cdc,5ff3a4a9cb7697a1f315237d,2021-01-04_23h28.57.048,Colour_Similarity_Experiment_v1,2020.1.2,Win32,60,5ff3a352adaa099f7659f8cc,,,,,,,,,,,,,,,,,,,,FF,,,,,,,,6,2.454915,,,,,,,,,,,,,,,,,,,,,,,,,,,,8,89,44,1,0,0,response1disk,6,216,-9,-6,1,0,0,rectangle,-9,-6,1,0,0,0,5,0,0.002385,-9,-6,1,0,0,0,53,53,37,1,,,,,,,,,,,,,,,,,,,,,
,,,,,,,,,,,,,,,,,,,,,,,,,,,,,,,,,,,,,,,,,,,5eea256b9e506b0d09822cdc,5ff3a4a9cb7697a1f315237d,2021-01-04_23h28.57.048,Colour_Similarity_Experiment_v1,2020.1.2,Win32,60,5ff3a352adaa099f7659f8cc,,,,,,,,,,,,,,,,,,,,PF,,,,,,,,7,2.204815,,,,,,,,,,,,,,,,,,,,,,,,,,,,6,39,86,1,0,0,response1disk,1,217,7,4,1,0,0,rectangle,7,4,1,0,0,0,1,0,0.00552,7,4,1,0,0,0,54,54,46,1,,,,,,,,,,,,,,,,,,,,,
,,,,,,,,,,,,,,,,,,,,,,,,,,,,,,,,,,,,,,,,,,,5eea256b9e506b0d09822cdc,5ff3a4a9cb7697a1f315237d,2021-01-04_23h28.57.048,Colour_Similarity_Experiment_v1,2020.1.2,Win32,60,5ff3a352adaa099f7659f8cc,,,,,,,,,,,,,,,,,,,,FF,,,,,,,,5,3.075505,,,,,,,,,,,,,,,,,,,,,,,,,,,,6,83,-44,1,0,0,response3disk,8,218,0,6,1,0,0,rectangle,0,6,1,0,0,0,3,0,0.00194,0,6,1,0,0,0,55,55,133,1,,,,,,,,,,,,,,,,,,,,,
,,,,,,,,,,,,,,,,,,,,,,,,,,,,,,,,,,,,,,,,,,,5eea256b9e506b0d09822cdc,5ff3a4a9cb7697a1f315237d,2021-01-04_23h28.57.048,Colour_Similarity_Experiment_v1,2020.1.2,Win32,60,5ff3a352adaa099f7659f8cc,,,,,,,,,,,,,,,,,,,,FF,,,,,,,,7,2.20134,,,,,,,,,,,,,,,,,,,,,,,,,,,,1,47,98,1,0,0,response1disk,5,219,11,-2,1,0,0,rectangle,11,-2,1,0,0,0,4,0,0.00281,11,-2,1,0,0,0,56,56,82,1,,,,,,,,,,,,,,,,,,,,,
,,,,,,,,,,,,,,,,,,,,,,,,,,,,,,,,,,,,,,,,,,,5eea256b9e506b0d09822cdc,5ff3a4a9cb7697a1f315237d,2021-01-04_23h28.57.048,Colour_Similarity_Experiment_v1,2020.1.2,Win32,60,5ff3a352adaa099f7659f8cc,,,,,,,,,,,,,,,,,,,,FF,,,,,,,,7,2.095615,,,,,,,,,,,,,,,,,,,,,,,,,,,,7,22,82,1,0,0,response1disk,2,220,9,-9,1,0,0,rectangle,9,-9,1,0,0,0,0,0,0.00197,9,-9,1,0,0,0,57,57,138,1,,,,,,,,,,,,,,,,,,,,,
,,,,,,,,,,,,,,,,,,,,,,,,,,,,,,,,,,,,,,,,,,,5eea256b9e506b0d09822cdc,5ff3a4a9cb7697a1f315237d,2021-01-04_23h28.57.048,Colour_Similarity_Experiment_v1,2020.1.2,Win32,60,5ff3a352adaa099f7659f8cc,,,,,,,,,,,,,,,,,,,,FF,,,,,,,,4,2.82387,,,,,,,,,,,,,,,,,,,,,,,,,,,,7,23,-46,1,0,0,response3disk,8,221,2,-2,1,0,0,rectangle,-62,92,1,0,0,0,0,1,3.109425,5,5,1,0,0,0,58,58,97,1,response7disk_3,rectangle,,,,,,,,,,,,,,,,,,,
,,,,,,,,,,,,,,,,,,,,,,,,,,,,,,,,,,,,,,,,,,,5eea256b9e506b0d09822cdc,5ff3a4a9cb7697a1f315237d,2021-01-04_23h28.57.048,Colour_Similarity_Experiment_v1,2020.1.2,Win32,60,5ff3a352adaa099f7659f8cc,,,,,,,,,,,,,,,,,,,,FF,,,,,,,,4,3.154555,,,,,,,,,,,,,,,,,,,,,,,,,,,,6,41,-89,1,0,0,response3disk,3,222,-7,6,1,0,0,rectangle,-7,6,1,0,0,0,6,0,0.015405,-7,6,1,0,0,0,59,59,21,1,,,,,,,,,,,,,,,,,,,,,
,,,,,,,,,,,,,,,,,,,,,,,,,,,,,,,,,,,,,,,,,,,5eea256b9e506b0d09822cdc,5ff3a4a9cb7697a1f315237d,2021-01-04_23h28.57.048,Colour_Similarity_Experiment_v1,2020.1.2,Win32,60,5ff3a352adaa099f7659f8cc,,,,,,,,,,,,,,,,,,,,FF,,,,,,,,7,2.15603,,,,,,,,,,,,,,,,,,,,,,,,,,,,4,27,58,1,0,0,response1disk,9,223,1,8,1,0,0,rectangle,1,8,1,0,0,0,4,0,0.002585,1,8,1,0,0,0,60,60,90,1,,,,,,,,,,,,,,,,,,,,,
,,,,,,,,,,,,,,,,,,,,,,,,,,,,,,,,,,,,,,,,,,,5eea256b9e506b0d09822cdc,5ff3a4a9cb7697a1f315237d,2021-01-04_23h28.57.048,Colour_Similarity_Experiment_v1,2020.1.2,Win32,60,5ff3a352adaa099f7659f8cc,,,,,,,,,,,,,,,,,,,,PF,,,,,,,,7,2.17013,,,,,,,,,,,,,,,,,,,,,,,,,,,,2,51,68,1,0,0,response1disk,6,224,-11,10,1,0,0,rectangle,-11,10,1,0,0,0,2,0,0.00218,-11,10,1,0,0,0,61,61,113,1,,,,,,,,,,,,,,,,,,,,,
,,,,,,,,,,,,,,,,,,,,,,,,,,,,,,,,,,,,,,,,,,,5eea256b9e506b0d09822cdc,5ff3a4a9cb7697a1f315237d,2021-01-04_23h28.57.048,Colour_Similarity_Experiment_v1,2020.1.2,Win32,60,5ff3a352adaa099f7659f8cc,,,,,,,,,,,,,,,,,,,,FF,,,,,,,,7,2.44567,,,,,,,,,,,,,,,,,,,,,,,,,,,,2,25,70,1,0,0,response1disk,6,225,-5,-2,1,0,0,rectangle,-5,-2,1,0,0,0,4,0,0.00229,-5,-2,1,0,0,0,62,62,40,1,,,,,,,,,,,,,,,,,,,,,
,,,,,,,,,,,,,,,,,,,,,,,,,,,,,,,,,,,,,,,,,,,5eea256b9e506b0d09822cdc,5ff3a4a9cb7697a1f315237d,2021-01-04_23h28.57.048,Colour_Similarity_Experiment_v1,2020.1.2,Win32,60,5ff3a352adaa099f7659f8cc,,,,,,,,,,,,,,,,,,,,PF,,,,,,,,7,2.346695,,,,,,,,,,,,,,,,,,,,,,,,,,,,8,43,86,1,0,0,response1disk,4,226,-8,6,1,0,0,rectangle,-8,6,1,0,0,0,5,0,0.00227,-8,6,1,0,0,0,63,63,78,1,,,,,,,,,,,,,,,,,,,,,
,,,,,,,,,,,,,,,,,,,,,,,,,,,,,,,,,,,,,,,,,,,5eea256b9e506b0d09822cdc,5ff3a4a9cb7697a1f315237d,2021-01-04_23h28.57.048,Colour_Similarity_Experiment_v1,2020.1.2,Win32,60,5ff3a352adaa099f7659f8cc,,,,,,,,,,,,,,,,,,,,FF,,,,,,,,7,2.307005,,,,,,,,,,,,,,,,,,,,,,,,,,,,3,20,71,1,0,0,response1disk,8,227,-11,8,1,0,0,rectangle,-11,8,1,0,0,0,3,0,0.001885,-11,8,1,0,0,0,64,64,44,1,,,,,,,,,,,,,,,,,,,,,
,,,,,,,,,,,,,,,,,,,,,,,,,,,,,,,,,,,,,,,,,,,5eea256b9e506b0d09822cdc,5ff3a4a9cb7697a1f315237d,2021-01-04_23h28.57.048,Colour_Similarity_Experiment_v1,2020.1.2,Win32,60,5ff3a352adaa099f7659f8cc,,,,,,,,,,,,,,,,,,,,FF,,,,,,,,5,2.927745,,,,,,,,,,,,,,,,,,,,,,,,,,,,3,65,-40,1,0,0,response3disk,5,228,-1,2,1,0,0,rectangle,-1,2,1,0,0,0,1,0,0.00206,-1,2,1,0,0,0,65,65,101,1,,,,,,,,,,,,,,,,,,,,,
,,,,,,,,,,,,,,,,,,,,,,,,,,,,,,,,,,,,,,,,,,,5eea256b9e506b0d09822cdc,5ff3a4a9cb7697a1f315237d,2021-01-04_23h28.57.048,Colour_Similarity_Experiment_v1,2020.1.2,Win32,60,5ff3a352adaa099f7659f8cc,,,,,,,,,,,,,,,,,,,,PF,,,,,,,,7,2.29611,,,,,,,,,,,,,,,,,,,,,,,,,,,,3,40,89,1,0,0,response1disk,1,229,-3,6,1,0,0,rectangle,-3,6,1,0,0,0,1,0,0.00258,-3,6,1,0,0,0,66,66,96,1,,,,,,,,,,,,,,,,,,,,,
,,,,,,,,,,,,,,,,,,,,,,,,,,,,,,,,,,,,,,,,,,,5eea256b9e506b0d09822cdc,5ff3a4a9cb7697a1f315237d,2021-01-04_23h28.57.048,Colour_Similarity_Experiment_v1,2020.1.2,Win32,60,5ff3a352adaa099f7659f8cc,,,,,,,,,,,,,,,,,,,,FF,,,,,,,,4,2.5686,,,,,,,,,,,,,,,,,,,,,,,,,,,,2,57,-86,1,0,0,response3disk,3,230,5,5,1,0,0,rectangle,-82,-48,1,0,0,0,2,1,2.752105,-2,0,1,0,0,0,67,67,104,1,response5disk_3,rectangle,,,,,,,,,,,,,,,,,,,
,,,,,,,,,,,,,,,,,,,,,,,,,,,,,,,,,,,,,,,,,,,5eea256b9e506b0d09822cdc,5ff3a4a9cb7697a1f315237d,2021-01-04_23h28.57.048,Colour_Similarity_Experiment_v1,2020.1.2,Win32,60,5ff3a352adaa099f7659f8cc,,,,,,,,,,,,,,,,,,,,PF,,,,,,,,7,2.550985,,,,,,,,,,,,,,,,,,,,,,,,,,,,2,44,91,1,0,0,response1disk,1,231,2,3,1,0,0,rectangle,2,3,1,0,0,0,7,0,0.127515,2,3,1,0,0,0,68,68,9,1,,,,,,,,,,,,,,,,,,,,,
,,,,,,,,,,,,,,,,,,,,,,,,,,,,,,,,,,,,,,,,,,,5eea256b9e506b0d09822cdc,5ff3a4a9cb7697a1f315237d,2021-01-04_23h28.57.048,Colour_Similarity_Experiment_v1,2020.1.2,Win32,60,5ff3a352adaa099f7659f8cc,,,,,,,,,,,,,,,,,,,,PF,,,,,,,,7,2.808245,,,,,,,,,,,,,,,,,,,,,,,,,,,,6,48,103,1,0,0,response1disk,3,232,3,3,1,0,0,rectangle,3,3,1,0,0,0,3,0,0.00175,3,3,1,0,0,0,69,69,26,1,,,,,,,,,,,,,,,,,,,,,
,,,,,,,,,,,,,,,,,,,,,,,,,,,,,,,,,,,,,,,,,,,5eea256b9e506b0d09822cdc,5ff3a4a9cb7697a1f315237d,2021-01-04_23h28.57.048,Colour_Similarity_Experiment_v1,2020.1.2,Win32,60,5ff3a352adaa099f7659f8cc,,,,,,,,,,,,,,,,,,,,FF,,,,,,,,7,2.655795,,,,,,,,,,,,,,,,,,,,,,,,,,,,1,33,84,1,0,0,response1disk,8,233,11,5,1,0,0,rectangle,11,5,1,0,0,0,7,0,0.002135,11,5,1,0,0,0,70,70,27,1,,,,,,,,,,,,,,,,,,,,,
,,,,,,,,,,,,,,,,,,,,,,,,,,,,,,,,,,,,,,,,,,,5eea256b9e506b0d09822cdc,5ff3a4a9cb7697a1f315237d,2021-01-04_23h28.57.048,Colour_Similarity_Experiment_v1,2020.1.2,Win32,60,5ff3a352adaa099f7659f8cc,,,,,,,,,,,,,,,,,,,,PF,,,,,,,,6,3.003145,,,,,,,,,,,,,,,,,,,,,,,,,,,,5,79,41,1,0,0,response1disk,4,234,-7,-6,1,0,0,rectangle,-7,-6,1,0,0,0,1,0,0.002905,-7,-6,1,0,0,0,71,71,54,1,,,,,,,,,,,,,,,,,,,,,
,,,,,,,,,,,,,,,,,,,,,,,,,,,,,,,,,,,,,,,,,,,5eea256b9e506b0d09822cdc,5ff3a4a9cb7697a1f315237d,2021-01-04_23h28.57.048,Colour_Similarity_Experiment_v1,2020.1.2,Win32,60,5ff3a352adaa099f7659f8cc,,,,,,,,,,,,,,,,,,,,PF,,,,,,,,7,2.066805,,,,,,,,,,,,,,,,,,,,,,,,,,,,3,41,104,1,0,0,response1disk,8,235,4,-3,1,0,0,rectangle,4,-3,1,0,0,0,4,0,0.001915,4,-3,1,0,0,0,72,72,3,1,,,,,,,,,,,,,,,,,,,,,
,,,,,,,,,,,,,,,,,,,,,,,,,,,,,,,,,,,,,,,,,,,5eea256b9e506b0d09822cdc,5ff3a4a9cb7697a1f315237d,2021-01-04_23h28.57.048,Colour_Similarity_Experiment_v1,2020.1.2,Win32,60,5ff3a352adaa099f7659f8cc,,,,,,,,,,,,,,,,,,,,PF,,,,,,,,2,2.462985,,,,,,,,,,,,,,,,,,,,,,,,,,,,3,-79,-44,1,0,0,response5disk,3,236,-1,2,1,0,0,rectangle,-1,2,1,0,0,0,6,0,0.002,-1,2,1,0,0,0,73,73,4,1,,,,,,,,,,,,,,,,,,,,,
,,,,,,,,,,,,,,,,,,,,,,,,,,,,,,,,,,,,,,,,,,,5eea256b9e506b0d09822cdc,5ff3a4a9cb7697a1f315237d,2021-01-04_23h28.57.048,Colour_Similarity_Experiment_v1,2020.1.2,Win32,60,5ff3a352adaa099f7659f8cc,,,,,,,,,,,,,,,,,,,,PF,,,,,,,,7,2.336155,,,,,,,,,,,,,,,,,,,,,,,,,,,,9,36,69,1,0,0,response1disk,6,237,3,3,1,0,0,rectangle,3,3,1,0,0,0,4,0,0.001985,3,3,1,0,0,0,74,74,148,1,,,,,,,,,,,,,,,,,,,,,
,,,,,,,,,,,,,,,,,,,,,,,,,,,,,,,,,,,,,,,,,,,5eea256b9e506b0d09822cdc,5ff3a4a9cb7697a1f315237d,2021-01-04_23h28.57.048,Colour_Similarity_Experiment_v1,2020.1.2,Win32,60,5ff3a352adaa099f7659f8cc,,,,,,,,,,,,,,,,,,,,PF,,,,,,,,5,3.418285,,,,,,,,,,,,,,,,,,,,,,,,,,,,1,74,-35,1,0,0,response3disk,2,238,-7,3,1,0,0,rectangle,-7,3,1,0,0,0,1,0,0.003005,-7,3,1,0,0,0,75,75,24,1,,,,,,,,,,,,,,,,,,,,,
,,,,,,,,,,,,,,,,,,,,,,,,,,,,,,,,,,,,,,,,,,,5eea256b9e506b0d09822cdc,5ff3a4a9cb7697a1f315237d,2021-01-04_23h28.57.048,Colour_Similarity_Experiment_v1,2020.1.2,Win32,60,5ff3a352adaa099f7659f8cc,,,,,,,,,,,,,,,,,,,,FF,,,,,,,,7,6.980825,,,,,,,,,,,,,,,,,,,,,,,,,,,,1,31,83,1,0,0,response1disk,3,239,-8,-5,1,0,0,rectangle,-8,-5,1,0,0,0,5,0,0.00262,-8,-5,1,0,0,0,76,76,99,1,,,,,,,,,,,,,,,,,,,,,
