key_resp.keys,key_resp.rt,key_resp_16.keys,key_resp_16.rt,key_resp_2.keys,key_resp_2.rt,X Scale,ratio_pxpermm,screen_size_x,screen_size_y,testsize,key_resp_3.keys,key_resp_3.rt,key_resp_4.keys,key_resp_4.rt,line_size,key_resp_5.keys,key_resp_5.rt,key_resp_6.keys,key_resp_6.rt,key_resp_8.keys,key_resp_8.rt,key_resp_7.keys,key_resp_7.rt,key_resp_12.keys,key_resp_12.rt,key_resp_11.keys,key_resp_11.rt,key_resp_18.keys,key_resp_18.rt,key_resp_21.keys,key_resp_21.rt,key_resp_13.keys,key_resp_13.rt,key_resp_19.keys,key_resp_19.rt,ballposx,viewer_distance,trials.thisRepN,trials.thisTrialN,trials.thisN,trials.thisIndex,trials.ran,participant,session,date,expName,psychopyVersion,OS,frameRate,study_id,viewerdistancecm,DVA_to_distance,radius_F,radius_P,r_F,R_P,key_resp_20.keys,key_resp_20.rt,key_resp_14.keys,key_resp_14.rt,key_resp_15.keys,key_resp_15.rt,key_resp_17.keys,key_resp_17.rt,key_resp_9.keys,key_resp_9.rt,key_resp_10.keys,key_resp_10.rt,Colour_1,Ecc,mouse_5.x,mouse_5.y,mouse_5.leftButton,mouse_5.midButton,mouse_5.rightButton,mouse_5.clicked_name,Colour_2,similarity,response_time,mouse_10.x,mouse_10.y,mouse_10.leftButton,mouse_10.midButton,mouse_10.rightButton,mouse_10.clicked_name,mouse_7.x,mouse_7.y,mouse_7.leftButton,mouse_7.midButton,mouse_7.rightButton,catchnumberprac,mouse_6.x,mouse_6.y,mouse_6.leftButton,mouse_6.midButton,mouse_6.rightButton,duringprac.thisRepN,duringprac.thisTrialN,duringprac.thisN,duringprac.thisIndex,duringprac.ran,mouse_7.clicked_name,catchprac,mouse_6.clicked_name,key_resp_22.keys,key_resp_22.rt,Colour1,mouse.x,mouse.y,mouse.leftButton,mouse.midButton,mouse.rightButton,mouse.clicked_name,Colour2,trialnumber,mouse_2.x,mouse_2.y,mouse_2.leftButton,mouse_2.midButton,mouse_2.rightButton,mouse_2.clicked_name,mouse_3.x,mouse_3.y,mouse_3.leftButton,mouse_3.midButton,mouse_3.rightButton,catchresponse,catchnumber,Catch,response_time_catch,mouse_11.x,mouse_11.y,mouse_11.leftButton,mouse_11.midButton,mouse_11.rightButton,trials_2.thisRepN,trials_2.thisTrialN,trials_2.thisN,trials_2.thisIndex,trials_2.ran,mouse_3.clicked_name,mouse_11.clicked_name,trials_3.thisRepN,trials_3.thisTrialN,trials_3.thisN,trials_3.thisIndex,trials_3.ran,answer1,rt1,answer2,rt2,answer3,rt3,answer4,rt4,answer5,rt5,answer6,rt6,answer7,rt7
space,1.872,space,3.572,space,9.116,37.1,3.71,517.5202156,291.1051213,1920,space,15.924,space,5.853,74.2,space,18.29,space,4.83,space,1.084,space,2.368,space,8.776,space,8.326,space,6.321,space,6.539,space,4.518,return,51.235,-2952,4176.528543,0,0,0,0,1,5efa10c6bb1e270bba6fb8d8,5ff3a3b2fd62fb9a4e4efc0e,2021-01-04_18h24.47.854,Colour_Similarity_Experiment_v1,2020.1.2,Win32,60,5ff3a352adaa099f7659f8cc,,,,,,,,,,,,,,,,,,,,,,,,,,,,,,,,,,,,,,,,,,,,,,,,,,,,,,,,,,,,,,,,,,,,,,,,,,,,,,,,,,,,,,,,,,,,,,,,,,,,,,,,,,,,,,,
,,,,,,,,,,,,,,,,,,,,,,,,,,,,,,,,,,return,4.799,144,700.5789815,1,0,1,0,1,5efa10c6bb1e270bba6fb8d8,5ff3a3b2fd62fb9a4e4efc0e,2021-01-04_18h24.47.854,Colour_Similarity_Experiment_v1,2020.1.2,Win32,60,5ff3a352adaa099f7659f8cc,,,,,,,,,,,,,,,,,,,,,,,,,,,,,,,,,,,,,,,,,,,,,,,,,,,,,,,,,,,,,,,,,,,,,,,,,,,,,,,,,,,,,,,,,,,,,,,,,,,,,,,,,,,,,,,
,,,,,,,,,,,,,,,,,,,,,,,,,,,,,,,,,,return,5.552,190.08,648.8439182,2,0,2,0,1,5efa10c6bb1e270bba6fb8d8,5ff3a3b2fd62fb9a4e4efc0e,2021-01-04_18h24.47.854,Colour_Similarity_Experiment_v1,2020.1.2,Win32,60,5ff3a352adaa099f7659f8cc,,,,,,,,,,,,,,,,,,,,,,,,,,,,,,,,,,,,,,,,,,,,,,,,,,,,,,,,,,,,,,,,,,,,,,,,,,,,,,,,,,,,,,,,,,,,,,,,,,,,,,,,,,,,,,,
,,,,,,,,,,,,,,,,,,,,,,,,,,,,,,,,,,return,5.739,100.8,749.0806033,3,0,3,0,1,5efa10c6bb1e270bba6fb8d8,5ff3a3b2fd62fb9a4e4efc0e,2021-01-04_18h24.47.854,Colour_Similarity_Experiment_v1,2020.1.2,Win32,60,5ff3a352adaa099f7659f8cc,,,,,,,,,,,,,,,,,,,,,,,,,,,,,,,,,,,,,,,,,,,,,,,,,,,,,,,,,,,,,,,,,,,,,,,,,,,,,,,,,,,,,,,,,,,,,,,,,,,,,,,,,,,,,,,
,,,,,,,,,,,,,,,,,,,,,,,,,,,,,,,,,,return,5.047,118.08,729.6799545,4,0,4,0,1,5efa10c6bb1e270bba6fb8d8,5ff3a3b2fd62fb9a4e4efc0e,2021-01-04_18h24.47.854,Colour_Similarity_Experiment_v1,2020.1.2,Win32,60,5ff3a352adaa099f7659f8cc,,,,,,,,,,,,,,,,,,,,,,,,,,,,,,,,,,,,,,,,,,,,,,,,,,,,,,,,,,,,,,,,,,,,,,,,,,,,,,,,,,,,,,,,,,,,,,,,,,,,,,,,,,,,,,,
,,,,,,,,,,,,,,,,,,,,,,,,,,,,,,,,,,,,,,,,,,,5efa10c6bb1e270bba6fb8d8,5ff3a3b2fd62fb9a4e4efc0e,2021-01-04_18h24.47.854,Colour_Similarity_Experiment_v1,2020.1.2,Win32,60,5ff3a352adaa099f7659f8cc,70,12.21854108,67.99618111,453.3078741,45.33078741,203.9885433,space,3.157,space,7.985,space,11.234,space,2.231,space,1.035,space,4.432,5,PF,-58,139.5,1,0,0,response7disk_5,9,0,7.488,-18,-11.5,1,0,0,rectangle_8,-18,-11.5,1,0,0,7,-18,-11.5,1,0,0,0,0,0,2,1,,,,,,,,,,,,,,,,,,,,,,,,,,,,,,,,,,,,,,,,,,,,,,,,,,,,,,,,,,,,
,,,,,,,,,,,,,,,,,,,,,,,,,,,,,,,,,,,,,,,,,,,5efa10c6bb1e270bba6fb8d8,5ff3a3b2fd62fb9a4e4efc0e,2021-01-04_18h24.47.854,Colour_Similarity_Experiment_v1,2020.1.2,Win32,60,5ff3a352adaa099f7659f8cc,,,,,,,,,,,,,,,,,,,7,PF,46,87.5,1,0,0,response1disk_5,4,7,3.046,-4,-6.5,1,0,0,rectangle_8,33,130.5,1,0,0,7,-20,7.5,1,0,0,0,1,1,4,1,response1disk_7,7,rectangle_4,,,,,,,,,,,,,,,,,,,,,,,,,,,,,,,,,,,,,,,,,,,,,,,,,,,,,,,,,
,,,,,,,,,,,,,,,,,,,,,,,,,,,,,,,,,,,,,,,,,,,5efa10c6bb1e270bba6fb8d8,5ff3a3b2fd62fb9a4e4efc0e,2021-01-04_18h24.47.854,Colour_Similarity_Experiment_v1,2020.1.2,Win32,60,5ff3a352adaa099f7659f8cc,,,,,,,,,,,,,,,,,,,1,FF,54,97.5,1,0,0,response1disk_5,8,7,4.307,-15,-11.5,1,0,0,rectangle_8,46,136.5,1,0,0,7,28,-17.5,1,0,0,0,2,2,0,1,response1disk_7,7,rectangle_4,,,,,,,,,,,,,,,,,,,,,,,,,,,,,,,,,,,,,,,,,,,,,,,,,,,,,,,,,
,,,,,,,,,,,,,,,,,,,,,,,,,,,,,,,,,,,,,,,,,,,5efa10c6bb1e270bba6fb8d8,5ff3a3b2fd62fb9a4e4efc0e,2021-01-04_18h24.47.854,Colour_Similarity_Experiment_v1,2020.1.2,Win32,60,5ff3a352adaa099f7659f8cc,,,,,,,,,,,,,,,,,,,2,FF,57,129.5,1,0,0,response1disk_5,8,7,2.641,-7,2.5,1,0,0,rectangle_8,-7,2.5,1,0,0,7,-7,2.5,1,0,0,0,3,3,5,1,,,,,,,,,,,,,,,,,,,,,,,,,,,,,,,,,,,,,,,,,,,,,,,,,,,,,,,,,,,,
,,,,,,,,,,,,,,,,,,,,,,,,,,,,,,,,,,,,,,,,,,,5efa10c6bb1e270bba6fb8d8,5ff3a3b2fd62fb9a4e4efc0e,2021-01-04_18h24.47.854,Colour_Similarity_Experiment_v1,2020.1.2,Win32,60,5ff3a352adaa099f7659f8cc,,,,,,,,,,,,,,,,,,,1,PF,101,43.5,1,0,0,response1disk_5,3,6,2.571,10,8.5,1,0,0,rectangle_8,10,8.5,1,0,0,7,10,8.5,1,0,0,0,4,4,6,1,,,,,,,,,,,,,,,,,,,,,,,,,,,,,,,,,,,,,,,,,,,,,,,,,,,,,,,,,,,,
,,,,,,,,,,,,,,,,,,,,,,,,,,,,,,,,,,,,,,,,,,,5efa10c6bb1e270bba6fb8d8,5ff3a3b2fd62fb9a4e4efc0e,2021-01-04_18h24.47.854,Colour_Similarity_Experiment_v1,2020.1.2,Win32,60,5ff3a352adaa099f7659f8cc,,,,,,,,,,,,,,,,,,,7,PF,-24,116.5,1,0,0,response7disk_5,7,0,1.363,-27,2.5,1,0,0,rectangle_8,-27,2.5,1,0,0,7,-27,2.5,1,0,0,0,5,5,1,1,,,,,,,,,,,,,,,,,,,,,,,,,,,,,,,,,,,,,,,,,,,,,,,,,,,,,,,,,,,,
,,,,,,,,,,,,,,,,,,,,,,,,,,,,,,,,,,,,,,,,,,,5efa10c6bb1e270bba6fb8d8,5ff3a3b2fd62fb9a4e4efc0e,2021-01-04_18h24.47.854,Colour_Similarity_Experiment_v1,2020.1.2,Win32,60,5ff3a352adaa099f7659f8cc,,,,,,,,,,,,,,,,,,,6,FF,22,-114.5,1,0,0,response3disk_5,3,4,2.296,19,-3.5,1,0,0,rectangle_8,19,-3.5,1,0,0,7,19,-3.5,1,0,0,0,6,6,3,1,,,,,,,,,,,,,,,,,,,,,,,,,,,,,,,,,,,,,,,,,,,,,,,,,,,,,,,,,,,,
,,,,,,,,,,,,,,,,,,,,,,,,,,,,,,,,,,,,,,,,,,,5efa10c6bb1e270bba6fb8d8,5ff3a3b2fd62fb9a4e4efc0e,2021-01-04_18h24.47.854,Colour_Similarity_Experiment_v1,2020.1.2,Win32,60,5ff3a352adaa099f7659f8cc,,,,,,,,,,,,,,,,,,,,FF,,,,,,,,5,1.939,,,,,,,,,,,,,,,,,,,,,,,,,,space,70.907,5,130,-43.5,1,0,0,response3disk,8,1,34,-10.5,1,0,0,rectangle,34,-10.5,1,0,0,,4,0,0.002,34,-10.5,1,0,0,0,0,0,16,1,,,,,,,,,,,,,,,,,,,,,
,,,,,,,,,,,,,,,,,,,,,,,,,,,,,,,,,,,,,,,,,,,5efa10c6bb1e270bba6fb8d8,5ff3a3b2fd62fb9a4e4efc0e,2021-01-04_18h24.47.854,Colour_Similarity_Experiment_v1,2020.1.2,Win32,60,5ff3a352adaa099f7659f8cc,,,,,,,,,,,,,,,,,,,,FF,,,,,,,,6,1.115,,,,,,,,,,,,,,,,,,,,,,,,,,,,3,100,56.5,1,0,0,response1disk,8,2,6,-6.5,1,0,0,rectangle,6,-6.5,1,0,0,,2,0,0.001,6,-6.5,1,0,0,0,1,1,44,1,,,,,,,,,,,,,,,,,,,,,
,,,,,,,,,,,,,,,,,,,,,,,,,,,,,,,,,,,,,,,,,,,5efa10c6bb1e270bba6fb8d8,5ff3a3b2fd62fb9a4e4efc0e,2021-01-04_18h24.47.854,Colour_Similarity_Experiment_v1,2020.1.2,Win32,60,5ff3a352adaa099f7659f8cc,,,,,,,,,,,,,,,,,,,,PF,,,,,,,,2,1.734,,,,,,,,,,,,,,,,,,,,,,,,,,,,4,-68,-49.5,1,0,0,response5disk,3,3,-23,-16.5,1,0,0,rectangle,-23,-16.5,1,0,0,,6,0,0,-23,-16.5,1,0,0,0,2,2,89,1,,,,,,,,,,,,,,,,,,,,,
,,,,,,,,,,,,,,,,,,,,,,,,,,,,,,,,,,,,,,,,,,,5efa10c6bb1e270bba6fb8d8,5ff3a3b2fd62fb9a4e4efc0e,2021-01-04_18h24.47.854,Colour_Similarity_Experiment_v1,2020.1.2,Win32,60,5ff3a352adaa099f7659f8cc,,,,,,,,,,,,,,,,,,,,PF,,,,,,,,7,0.93,,,,,,,,,,,,,,,,,,,,,,,,,,,,3,70,81.5,1,0,0,response1disk,1,4,5,12.5,1,0,0,rectangle,5,12.5,1,0,0,,5,0,0,5,12.5,1,0,0,0,3,3,96,1,,,,,,,,,,,,,,,,,,,,,
,,,,,,,,,,,,,,,,,,,,,,,,,,,,,,,,,,,,,,,,,,,5efa10c6bb1e270bba6fb8d8,5ff3a3b2fd62fb9a4e4efc0e,2021-01-04_18h24.47.854,Colour_Similarity_Experiment_v1,2020.1.2,Win32,60,5ff3a352adaa099f7659f8cc,,,,,,,,,,,,,,,,,,,,PF,,,,,,,,5,1.448,,,,,,,,,,,,,,,,,,,,,,,,,,,,6,121,-53.5,1,0,0,response3disk,3,5,9,-17.5,1,0,0,rectangle,9,-17.5,1,0,0,,5,0,0.014,9,-17.5,1,0,0,0,4,4,26,1,,,,,,,,,,,,,,,,,,,,,
,,,,,,,,,,,,,,,,,,,,,,,,,,,,,,,,,,,,,,,,,,,5efa10c6bb1e270bba6fb8d8,5ff3a3b2fd62fb9a4e4efc0e,2021-01-04_18h24.47.854,Colour_Similarity_Experiment_v1,2020.1.2,Win32,60,5ff3a352adaa099f7659f8cc,,,,,,,,,,,,,,,,,,,,FF,,,,,,,,7,1.121,,,,,,,,,,,,,,,,,,,,,,,,,,,,1,53,89.5,1,0,0,response1disk,5,6,23,9.5,1,0,0,rectangle,23,9.5,1,0,0,,0,0,0.001,23,9.5,1,0,0,0,5,5,82,1,,,,,,,,,,,,,,,,,,,,,
,,,,,,,,,,,,,,,,,,,,,,,,,,,,,,,,,,,,,,,,,,,5efa10c6bb1e270bba6fb8d8,5ff3a3b2fd62fb9a4e4efc0e,2021-01-04_18h24.47.854,Colour_Similarity_Experiment_v1,2020.1.2,Win32,60,5ff3a352adaa099f7659f8cc,,,,,,,,,,,,,,,,,,,,PF,,,,,,,,1,1.524,,,,,,,,,,,,,,,,,,,,,,,,,,,,3,-114,40.5,1,0,0,response7disk,4,7,-3,5.5,1,0,0,rectangle,-3,5.5,1,0,0,,6,0,0.002,-3,5.5,1,0,0,0,6,6,30,1,,,,,,,,,,,,,,,,,,,,,
,,,,,,,,,,,,,,,,,,,,,,,,,,,,,,,,,,,,,,,,,,,5efa10c6bb1e270bba6fb8d8,5ff3a3b2fd62fb9a4e4efc0e,2021-01-04_18h24.47.854,Colour_Similarity_Experiment_v1,2020.1.2,Win32,60,5ff3a352adaa099f7659f8cc,,,,,,,,,,,,,,,,,,,,FF,,,,,,,,1,1.156,,,,,,,,,,,,,,,,,,,,,,,,,,,,4,-77,38.5,1,0,0,response7disk,3,8,-12,-1.5,1,0,0,rectangle,-12,-1.5,1,0,0,,1,0,0.001,-12,-1.5,1,0,0,0,7,7,77,1,,,,,,,,,,,,,,,,,,,,,
,,,,,,,,,,,,,,,,,,,,,,,,,,,,,,,,,,,,,,,,,,,5efa10c6bb1e270bba6fb8d8,5ff3a3b2fd62fb9a4e4efc0e,2021-01-04_18h24.47.854,Colour_Similarity_Experiment_v1,2020.1.2,Win32,60,5ff3a352adaa099f7659f8cc,,,,,,,,,,,,,,,,,,,,PF,,,,,,,,2,1.608,,,,,,,,,,,,,,,,,,,,,,,,,,,,8,-144,-60.5,1,0,0,response5disk,7,9,-10,-5.5,1,0,0,rectangle,-10,-5.5,1,0,0,,5,0,0.003,-10,-5.5,1,0,0,0,8,8,23,1,,,,,,,,,,,,,,,,,,,,,
,,,,,,,,,,,,,,,,,,,,,,,,,,,,,,,,,,,,,,,,,,,5efa10c6bb1e270bba6fb8d8,5ff3a3b2fd62fb9a4e4efc0e,2021-01-04_18h24.47.854,Colour_Similarity_Experiment_v1,2020.1.2,Win32,60,5ff3a352adaa099f7659f8cc,,,,,,,,,,,,,,,,,,,,FF,,,,,,,,7,1.403,,,,,,,,,,,,,,,,,,,,,,,,,,,,4,58,104.5,1,0,0,response1disk,1,10,-4,3.5,1,0,0,rectangle,-4,3.5,1,0,0,,0,0,0.001,-4,3.5,1,0,0,0,9,9,102,1,,,,,,,,,,,,,,,,,,,,,
,,,,,,,,,,,,,,,,,,,,,,,,,,,,,,,,,,,,,,,,,,,5efa10c6bb1e270bba6fb8d8,5ff3a3b2fd62fb9a4e4efc0e,2021-01-04_18h24.47.854,Colour_Similarity_Experiment_v1,2020.1.2,Win32,60,5ff3a352adaa099f7659f8cc,,,,,,,,,,,,,,,,,,,,FF,,,,,,,,0,1.066,,,,,,,,,,,,,,,,,,,,,,,,,,,,4,-44,114.5,1,0,0,response7disk,4,11,1,1.5,1,0,0,rectangle,1,1.5,1,0,0,,4,0,0,1,1.5,1,0,0,0,10,10,84,1,,,,,,,,,,,,,,,,,,,,,
,,,,,,,,,,,,,,,,,,,,,,,,,,,,,,,,,,,,,,,,,,,5efa10c6bb1e270bba6fb8d8,5ff3a3b2fd62fb9a4e4efc0e,2021-01-04_18h24.47.854,Colour_Similarity_Experiment_v1,2020.1.2,Win32,60,5ff3a352adaa099f7659f8cc,,,,,,,,,,,,,,,,,,,,FF,,,,,,,,1,1.244,,,,,,,,,,,,,,,,,,,,,,,,,,,,5,-119,47.5,1,0,0,response7disk,6,12,-10,-5.5,1,0,0,rectangle,-10,-5.5,1,0,0,,5,0,0.001,-10,-5.5,1,0,0,0,11,11,12,1,,,,,,,,,,,,,,,,,,,,,
,,,,,,,,,,,,,,,,,,,,,,,,,,,,,,,,,,,,,,,,,,,5efa10c6bb1e270bba6fb8d8,5ff3a3b2fd62fb9a4e4efc0e,2021-01-04_18h24.47.854,Colour_Similarity_Experiment_v1,2020.1.2,Win32,60,5ff3a352adaa099f7659f8cc,,,,,,,,,,,,,,,,,,,,PF,,,,,,,,7,1.558,,,,,,,,,,,,,,,,,,,,,,,,,,,,8,80,116.5,1,0,0,response1disk,1,13,14,13.5,1,0,0,rectangle,14,13.5,1,0,0,,4,0,0.022,14,13.5,1,0,0,0,12,12,57,1,,,,,,,,,,,,,,,,,,,,,
,,,,,,,,,,,,,,,,,,,,,,,,,,,,,,,,,,,,,,,,,,,5efa10c6bb1e270bba6fb8d8,5ff3a3b2fd62fb9a4e4efc0e,2021-01-04_18h24.47.854,Colour_Similarity_Experiment_v1,2020.1.2,Win32,60,5ff3a352adaa099f7659f8cc,,,,,,,,,,,,,,,,,,,,PF,,,,,,,,0,1.112,,,,,,,,,,,,,,,,,,,,,,,,,,,,5,-69,124.5,1,0,0,response7disk,5,14,-1,12.5,1,0,0,rectangle,-1,12.5,1,0,0,,4,0,0.001,-1,12.5,1,0,0,0,13,13,94,1,,,,,,,,,,,,,,,,,,,,,
,,,,,,,,,,,,,,,,,,,,,,,,,,,,,,,,,,,,,,,,,,,5efa10c6bb1e270bba6fb8d8,5ff3a3b2fd62fb9a4e4efc0e,2021-01-04_18h24.47.854,Colour_Similarity_Experiment_v1,2020.1.2,Win32,60,5ff3a352adaa099f7659f8cc,,,,,,,,,,,,,,,,,,,,PF,,,,,,,,1,1.008,,,,,,,,,,,,,,,,,,,,,,,,,,,,6,-104,43.5,1,0,0,response7disk,5,15,-4,17.5,1,0,0,rectangle,-4,17.5,1,0,0,,3,0,0.036,-4,17.5,1,0,0,0,14,14,59,1,,,,,,,,,,,,,,,,,,,,,
,,,,,,,,,,,,,,,,,,,,,,,,,,,,,,,,,,,,,,,,,,,5efa10c6bb1e270bba6fb8d8,5ff3a3b2fd62fb9a4e4efc0e,2021-01-04_18h24.47.854,Colour_Similarity_Experiment_v1,2020.1.2,Win32,60,5ff3a352adaa099f7659f8cc,,,,,,,,,,,,,,,,,,,,PF,,,,,,,,7,1.225,,,,,,,,,,,,,,,,,,,,,,,,,,,,4,68,117.5,1,0,0,response1disk,8,16,-9,0.5,1,0,0,rectangle,-9,0.5,1,0,0,,3,0,0.001,-9,0.5,1,0,0,0,15,15,124,1,,,,,,,,,,,,,,,,,,,,,
,,,,,,,,,,,,,,,,,,,,,,,,,,,,,,,,,,,,,,,,,,,5efa10c6bb1e270bba6fb8d8,5ff3a3b2fd62fb9a4e4efc0e,2021-01-04_18h24.47.854,Colour_Similarity_Experiment_v1,2020.1.2,Win32,60,5ff3a352adaa099f7659f8cc,,,,,,,,,,,,,,,,,,,,PF,,,,,,,,7,0.841,,,,,,,,,,,,,,,,,,,,,,,,,,,,4,69,126.5,1,0,0,response1disk,1,17,-5,1.5,1,0,0,rectangle,-5,1.5,1,0,0,,3,0,0.014,-5,1.5,1,0,0,0,16,16,115,1,,,,,,,,,,,,,,,,,,,,,
,,,,,,,,,,,,,,,,,,,,,,,,,,,,,,,,,,,,,,,,,,,5efa10c6bb1e270bba6fb8d8,5ff3a3b2fd62fb9a4e4efc0e,2021-01-04_18h24.47.854,Colour_Similarity_Experiment_v1,2020.1.2,Win32,60,5ff3a352adaa099f7659f8cc,,,,,,,,,,,,,,,,,,,,PF,,,,,,,,7,1.516,,,,,,,,,,,,,,,,,,,,,,,,,,,,8,52,113.5,1,0,0,response1disk,2,18,-16,-5.5,1,0,0,rectangle,-16,-5.5,1,0,0,,2,0,0.001,-16,-5.5,1,0,0,0,17,17,83,1,,,,,,,,,,,,,,,,,,,,,
,,,,,,,,,,,,,,,,,,,,,,,,,,,,,,,,,,,,,,,,,,,5efa10c6bb1e270bba6fb8d8,5ff3a3b2fd62fb9a4e4efc0e,2021-01-04_18h24.47.854,Colour_Similarity_Experiment_v1,2020.1.2,Win32,60,5ff3a352adaa099f7659f8cc,,,,,,,,,,,,,,,,,,,,PF,,,,,,,,3,2.783,,,,,,,,,,,,,,,,,,,,,,,,,,,,5,-71,-123.5,1,0,0,response5disk,6,19,-12,-3.5,1,0,0,rectangle,-12,-3.5,1,0,0,,1,0,0.001,-12,-3.5,1,0,0,0,18,18,103,1,,,,,,,,,,,,,,,,,,,,,
,,,,,,,,,,,,,,,,,,,,,,,,,,,,,,,,,,,,,,,,,,,5efa10c6bb1e270bba6fb8d8,5ff3a3b2fd62fb9a4e4efc0e,2021-01-04_18h24.47.854,Colour_Similarity_Experiment_v1,2020.1.2,Win32,60,5ff3a352adaa099f7659f8cc,,,,,,,,,,,,,,,,,,,,PF,,,,,,,,5,4.904,,,,,,,,,,,,,,,,,,,,,,,,,,,,1,113,-41.5,1,0,0,response3disk,6,20,12,-13.5,1,0,0,rectangle,12,-13.5,1,0,0,,4,0,0.002,12,-13.5,1,0,0,0,19,19,144,1,,,,,,,,,,,,,,,,,,,,,
,,,,,,,,,,,,,,,,,,,,,,,,,,,,,,,,,,,,,,,,,,,5efa10c6bb1e270bba6fb8d8,5ff3a3b2fd62fb9a4e4efc0e,2021-01-04_18h24.47.854,Colour_Similarity_Experiment_v1,2020.1.2,Win32,60,5ff3a352adaa099f7659f8cc,,,,,,,,,,,,,,,,,,,,PF,,,,,,,,3,1.415,,,,,,,,,,,,,,,,,,,,,,,,,,,,8,-40,-116.5,1,0,0,response5disk,6,21,3,0.5,1,0,0,rectangle,-121,-46.5,1,0,0,,2,1,2.356,-1,-10.5,1,0,0,0,20,20,161,1,response5disk_3,rectangle,,,,,,,,,,,,,,,,,,,
,,,,,,,,,,,,,,,,,,,,,,,,,,,,,,,,,,,,,,,,,,,5efa10c6bb1e270bba6fb8d8,5ff3a3b2fd62fb9a4e4efc0e,2021-01-04_18h24.47.854,Colour_Similarity_Experiment_v1,2020.1.2,Win32,60,5ff3a352adaa099f7659f8cc,,,,,,,,,,,,,,,,,,,,PF,,,,,,,,7,1.147,,,,,,,,,,,,,,,,,,,,,,,,,,,,7,60,127.5,1,0,0,response1disk,1,22,-11,0.5,1,0,0,rectangle,-11,0.5,1,0,0,,5,0,0.008,-11,0.5,1,0,0,0,21,21,53,1,,,,,,,,,,,,,,,,,,,,,
,,,,,,,,,,,,,,,,,,,,,,,,,,,,,,,,,,,,,,,,,,,5efa10c6bb1e270bba6fb8d8,5ff3a3b2fd62fb9a4e4efc0e,2021-01-04_18h24.47.854,Colour_Similarity_Experiment_v1,2020.1.2,Win32,60,5ff3a352adaa099f7659f8cc,,,,,,,,,,,,,,,,,,,,FF,,,,,,,,5,1.293,,,,,,,,,,,,,,,,,,,,,,,,,,,,2,126,-26.5,1,0,0,response3disk,9,23,5,3.5,1,0,0,rectangle,5,3.5,1,0,0,,4,0,0.007,5,3.5,1,0,0,0,22,22,72,1,,,,,,,,,,,,,,,,,,,,,
,,,,,,,,,,,,,,,,,,,,,,,,,,,,,,,,,,,,,,,,,,,5efa10c6bb1e270bba6fb8d8,5ff3a3b2fd62fb9a4e4efc0e,2021-01-04_18h24.47.854,Colour_Similarity_Experiment_v1,2020.1.2,Win32,60,5ff3a352adaa099f7659f8cc,,,,,,,,,,,,,,,,,,,,PF,,,,,,,,4,1.241,,,,,,,,,,,,,,,,,,,,,,,,,,,,3,50,-107.5,1,0,0,response3disk,5,24,17,3.5,1,0,0,rectangle,17,3.5,1,0,0,,4,0,0.001,17,3.5,1,0,0,0,23,23,66,1,,,,,,,,,,,,,,,,,,,,,
,,,,,,,,,,,,,,,,,,,,,,,,,,,,,,,,,,,,,,,,,,,5efa10c6bb1e270bba6fb8d8,5ff3a3b2fd62fb9a4e4efc0e,2021-01-04_18h24.47.854,Colour_Similarity_Experiment_v1,2020.1.2,Win32,60,5ff3a352adaa099f7659f8cc,,,,,,,,,,,,,,,,,,,,FF,,,,,,,,3,1.227,,,,,,,,,,,,,,,,,,,,,,,,,,,,3,-43,-105.5,1,0,0,response5disk,6,25,0,1.5,1,0,0,rectangle,0,1.5,1,0,0,,0,0,0.001,0,1.5,1,0,0,0,24,24,95,1,,,,,,,,,,,,,,,,,,,,,
,,,,,,,,,,,,,,,,,,,,,,,,,,,,,,,,,,,,,,,,,,,5efa10c6bb1e270bba6fb8d8,5ff3a3b2fd62fb9a4e4efc0e,2021-01-04_18h24.47.854,Colour_Similarity_Experiment_v1,2020.1.2,Win32,60,5ff3a352adaa099f7659f8cc,,,,,,,,,,,,,,,,,,,,PF,,,,,,,,7,1.547,,,,,,,,,,,,,,,,,,,,,,,,,,,,9,48,120.5,1,0,0,response1disk,4,26,5,2.5,1,0,0,rectangle,5,2.5,1,0,0,,7,0,0.004,5,2.5,1,0,0,0,25,25,114,1,,,,,,,,,,,,,,,,,,,,,
,,,,,,,,,,,,,,,,,,,,,,,,,,,,,,,,,,,,,,,,,,,5efa10c6bb1e270bba6fb8d8,5ff3a3b2fd62fb9a4e4efc0e,2021-01-04_18h24.47.854,Colour_Similarity_Experiment_v1,2020.1.2,Win32,60,5ff3a352adaa099f7659f8cc,,,,,,,,,,,,,,,,,,,,FF,,,,,,,,1,1.239,,,,,,,,,,,,,,,,,,,,,,,,,,,,8,-125,50.5,1,0,0,response7disk,9,27,-8,-8.5,1,0,0,rectangle,-8,-8.5,1,0,0,,5,0,0,-8,-8.5,1,0,0,0,26,26,105,1,,,,,,,,,,,,,,,,,,,,,
,,,,,,,,,,,,,,,,,,,,,,,,,,,,,,,,,,,,,,,,,,,5efa10c6bb1e270bba6fb8d8,5ff3a3b2fd62fb9a4e4efc0e,2021-01-04_18h24.47.854,Colour_Similarity_Experiment_v1,2020.1.2,Win32,60,5ff3a352adaa099f7659f8cc,,,,,,,,,,,,,,,,,,,,FF,,,,,,,,7,2.17,,,,,,,,,,,,,,,,,,,,,,,,,,,,6,65,133.5,1,0,0,response1disk,2,28,18,3.5,1,0,0,rectangle,18,3.5,1,0,0,,1,0,0.004,18,3.5,1,0,0,0,27,27,112,1,,,,,,,,,,,,,,,,,,,,,
,,,,,,,,,,,,,,,,,,,,,,,,,,,,,,,,,,,,,,,,,,,5efa10c6bb1e270bba6fb8d8,5ff3a3b2fd62fb9a4e4efc0e,2021-01-04_18h24.47.854,Colour_Similarity_Experiment_v1,2020.1.2,Win32,60,5ff3a352adaa099f7659f8cc,,,,,,,,,,,,,,,,,,,,FF,,,,,,,,7,1.203,,,,,,,,,,,,,,,,,,,,,,,,,,,,6,48,121.5,1,0,0,response1disk,1,29,5,14.5,1,0,0,rectangle,5,14.5,1,0,0,,6,0,0.01,5,14.5,1,0,0,0,28,28,5,1,,,,,,,,,,,,,,,,,,,,,
,,,,,,,,,,,,,,,,,,,,,,,,,,,,,,,,,,,,,,,,,,,5efa10c6bb1e270bba6fb8d8,5ff3a3b2fd62fb9a4e4efc0e,2021-01-04_18h24.47.854,Colour_Similarity_Experiment_v1,2020.1.2,Win32,60,5ff3a352adaa099f7659f8cc,,,,,,,,,,,,,,,,,,,,PF,,,,,,,,7,0.942,,,,,,,,,,,,,,,,,,,,,,,,,,,,3,56,114.5,1,0,0,response1disk,6,30,19,4.5,1,0,0,rectangle,19,4.5,1,0,0,,6,0,0.002,19,4.5,1,0,0,0,29,29,47,1,,,,,,,,,,,,,,,,,,,,,
,,,,,,,,,,,,,,,,,,,,,,,,,,,,,,,,,,,,,,,,,,,5efa10c6bb1e270bba6fb8d8,5ff3a3b2fd62fb9a4e4efc0e,2021-01-04_18h24.47.854,Colour_Similarity_Experiment_v1,2020.1.2,Win32,60,5ff3a352adaa099f7659f8cc,,,,,,,,,,,,,,,,,,,,PF,,,,,,,,7,0.823,,,,,,,,,,,,,,,,,,,,,,,,,,,,9,47,122.5,1,0,0,response1disk,6,31,1,11.5,1,0,0,rectangle,1,11.5,1,0,0,,1,0,0.001,1,11.5,1,0,0,0,30,30,148,1,,,,,,,,,,,,,,,,,,,,,
,,,,,,,,,,,,,,,,,,,,,,,,,,,,,,,,,,,,,,,,,,,5efa10c6bb1e270bba6fb8d8,5ff3a3b2fd62fb9a4e4efc0e,2021-01-04_18h24.47.854,Colour_Similarity_Experiment_v1,2020.1.2,Win32,60,5ff3a352adaa099f7659f8cc,,,,,,,,,,,,,,,,,,,,PF,,,,,,,,7,0.845,,,,,,,,,,,,,,,,,,,,,,,,,,,,5,41,112.5,1,0,0,response1disk,8,32,4,13.5,1,0,0,rectangle,4,13.5,1,0,0,,2,0,0.001,4,13.5,1,0,0,0,31,31,149,1,,,,,,,,,,,,,,,,,,,,,
,,,,,,,,,,,,,,,,,,,,,,,,,,,,,,,,,,,,,,,,,,,5efa10c6bb1e270bba6fb8d8,5ff3a3b2fd62fb9a4e4efc0e,2021-01-04_18h24.47.854,Colour_Similarity_Experiment_v1,2020.1.2,Win32,60,5ff3a352adaa099f7659f8cc,,,,,,,,,,,,,,,,,,,,PF,,,,,,,,6,1.148,,,,,,,,,,,,,,,,,,,,,,,,,,,,2,110,63.5,1,0,0,response1disk,9,33,37,2.5,1,0,0,rectangle,37,2.5,1,0,0,,1,0,0.002,37,2.5,1,0,0,0,32,32,39,1,,,,,,,,,,,,,,,,,,,,,
,,,,,,,,,,,,,,,,,,,,,,,,,,,,,,,,,,,,,,,,,,,5efa10c6bb1e270bba6fb8d8,5ff3a3b2fd62fb9a4e4efc0e,2021-01-04_18h24.47.854,Colour_Similarity_Experiment_v1,2020.1.2,Win32,60,5ff3a352adaa099f7659f8cc,,,,,,,,,,,,,,,,,,,,FF,,,,,,,,7,0.962,,,,,,,,,,,,,,,,,,,,,,,,,,,,4,59,127.5,1,0,0,response1disk,8,34,6,8.5,1,0,0,rectangle,6,8.5,1,0,0,,3,0,0.001,6,8.5,1,0,0,0,33,33,35,1,,,,,,,,,,,,,,,,,,,,,
,,,,,,,,,,,,,,,,,,,,,,,,,,,,,,,,,,,,,,,,,,,5efa10c6bb1e270bba6fb8d8,5ff3a3b2fd62fb9a4e4efc0e,2021-01-04_18h24.47.854,Colour_Similarity_Experiment_v1,2020.1.2,Win32,60,5ff3a352adaa099f7659f8cc,,,,,,,,,,,,,,,,,,,,FF,,,,,,,,0,0.819,,,,,,,,,,,,,,,,,,,,,,,,,,,,3,-45,127.5,1,0,0,response7disk,3,35,-10,-5.5,1,0,0,rectangle,-10,-5.5,1,0,0,,5,0,0,-10,-5.5,1,0,0,0,34,34,68,1,,,,,,,,,,,,,,,,,,,,,
,,,,,,,,,,,,,,,,,,,,,,,,,,,,,,,,,,,,,,,,,,,5efa10c6bb1e270bba6fb8d8,5ff3a3b2fd62fb9a4e4efc0e,2021-01-04_18h24.47.854,Colour_Similarity_Experiment_v1,2020.1.2,Win32,60,5ff3a352adaa099f7659f8cc,,,,,,,,,,,,,,,,,,,,PF,,,,,,,,7,1.461,,,,,,,,,,,,,,,,,,,,,,,,,,,,3,58,119.5,1,0,0,response1disk,9,36,18,-3.5,1,0,0,rectangle,18,-3.5,1,0,0,,3,0,0.001,18,-3.5,1,0,0,0,35,35,79,1,,,,,,,,,,,,,,,,,,,,,
,,,,,,,,,,,,,,,,,,,,,,,,,,,,,,,,,,,,,,,,,,,5efa10c6bb1e270bba6fb8d8,5ff3a3b2fd62fb9a4e4efc0e,2021-01-04_18h24.47.854,Colour_Similarity_Experiment_v1,2020.1.2,Win32,60,5ff3a352adaa099f7659f8cc,,,,,,,,,,,,,,,,,,,,PF,,,,,,,,7,3.274,,,,,,,,,,,,,,,,,,,,,,,,,,,,9,42,133.5,1,0,0,response1disk,5,37,-3,11.5,1,0,0,rectangle,-3,11.5,1,0,0,,2,0,0.001,-3,11.5,1,0,0,0,36,36,134,1,,,,,,,,,,,,,,,,,,,,,
,,,,,,,,,,,,,,,,,,,,,,,,,,,,,,,,,,,,,,,,,,,5efa10c6bb1e270bba6fb8d8,5ff3a3b2fd62fb9a4e4efc0e,2021-01-04_18h24.47.854,Colour_Similarity_Experiment_v1,2020.1.2,Win32,60,5ff3a352adaa099f7659f8cc,,,,,,,,,,,,,,,,,,,,PF,,,,,,,,2,1.257,,,,,,,,,,,,,,,,,,,,,,,,,,,,7,-110,-52.5,1,0,0,response5disk,6,38,2,-13.5,1,0,0,rectangle,2,-13.5,1,0,0,,5,0,0,2,-13.5,1,0,0,0,37,37,29,1,,,,,,,,,,,,,,,,,,,,,
,,,,,,,,,,,,,,,,,,,,,,,,,,,,,,,,,,,,,,,,,,,5efa10c6bb1e270bba6fb8d8,5ff3a3b2fd62fb9a4e4efc0e,2021-01-04_18h24.47.854,Colour_Similarity_Experiment_v1,2020.1.2,Win32,60,5ff3a352adaa099f7659f8cc,,,,,,,,,,,,,,,,,,,,PF,,,,,,,,7,1.65,,,,,,,,,,,,,,,,,,,,,,,,,,,,8,51,133.5,1,0,0,response1disk,4,39,2,6.5,1,0,0,rectangle,2,6.5,1,0,0,,2,0,0,2,6.5,1,0,0,0,38,38,78,1,,,,,,,,,,,,,,,,,,,,,
,,,,,,,,,,,,,,,,,,,,,,,,,,,,,,,,,,,,,,,,,,,5efa10c6bb1e270bba6fb8d8,5ff3a3b2fd62fb9a4e4efc0e,2021-01-04_18h24.47.854,Colour_Similarity_Experiment_v1,2020.1.2,Win32,60,5ff3a352adaa099f7659f8cc,,,,,,,,,,,,,,,,,,,,FF,,,,,,,,7,0.856,,,,,,,,,,,,,,,,,,,,,,,,,,,,6,66,148.5,1,0,0,response1disk,3,40,20,5.5,1,0,0,rectangle,20,5.5,1,0,0,,4,0,0,20,5.5,1,0,0,0,39,39,21,1,,,,,,,,,,,,,,,,,,,,,
,,,,,,,,,,,,,,,,,,,,,,,,,,,,,,,,,,,,,,,,,,,5efa10c6bb1e270bba6fb8d8,5ff3a3b2fd62fb9a4e4efc0e,2021-01-04_18h24.47.854,Colour_Similarity_Experiment_v1,2020.1.2,Win32,60,5ff3a352adaa099f7659f8cc,,,,,,,,,,,,,,,,,,,,PF,,,,,,,,3,1.555,,,,,,,,,,,,,,,,,,,,,,,,,,,,2,-54,-123.5,1,0,0,response5disk,3,41,26,-15.5,1,0,0,rectangle,26,-15.5,1,0,0,,2,0,0.002,26,-15.5,1,0,0,0,40,40,69,1,,,,,,,,,,,,,,,,,,,,,
,,,,,,,,,,,,,,,,,,,,,,,,,,,,,,,,,,,,,,,,,,,5efa10c6bb1e270bba6fb8d8,5ff3a3b2fd62fb9a4e4efc0e,2021-01-04_18h24.47.854,Colour_Similarity_Experiment_v1,2020.1.2,Win32,60,5ff3a352adaa099f7659f8cc,,,,,,,,,,,,,,,,,,,,FF,,,,,,,,1,1.071,,,,,,,,,,,,,,,,,,,,,,,,,,,,4,-119,45.5,1,0,0,response7disk,5,42,-32,11.5,1,0,0,rectangle,-32,11.5,1,0,0,,7,0,0.001,-32,11.5,1,0,0,0,41,41,116,1,,,,,,,,,,,,,,,,,,,,,
,,,,,,,,,,,,,,,,,,,,,,,,,,,,,,,,,,,,,,,,,,,5efa10c6bb1e270bba6fb8d8,5ff3a3b2fd62fb9a4e4efc0e,2021-01-04_18h24.47.854,Colour_Similarity_Experiment_v1,2020.1.2,Win32,60,5ff3a352adaa099f7659f8cc,,,,,,,,,,,,,,,,,,,,FF,,,,,,,,7,0.946,,,,,,,,,,,,,,,,,,,,,,,,,,,,5,63,124.5,1,0,0,response1disk,2,43,22,-9.5,1,0,0,rectangle,-58,-124.5,1,0,0,3,3,1,1.805,-18,1.5,1,0,0,0,42,42,55,1,response5disk_3,rectangle,,,,,,,,,,,,,,,,,,,
,,,,,,,,,,,,,,,,,,,,,,,,,,,,,,,,,,,,,,,,,,,5efa10c6bb1e270bba6fb8d8,5ff3a3b2fd62fb9a4e4efc0e,2021-01-04_18h24.47.854,Colour_Similarity_Experiment_v1,2020.1.2,Win32,60,5ff3a352adaa099f7659f8cc,,,,,,,,,,,,,,,,,,,,PF,,,,,,,,7,0.871,,,,,,,,,,,,,,,,,,,,,,,,,,,,3,60,121.5,1,0,0,response1disk,8,44,7,-3.5,1,0,0,rectangle,7,-3.5,1,0,0,3,6,0,0.003,7,-3.5,1,0,0,0,43,43,3,1,,,,,,,,,,,,,,,,,,,,,
,,,,,,,,,,,,,,,,,,,,,,,,,,,,,,,,,,,,,,,,,,,5efa10c6bb1e270bba6fb8d8,5ff3a3b2fd62fb9a4e4efc0e,2021-01-04_18h24.47.854,Colour_Similarity_Experiment_v1,2020.1.2,Win32,60,5ff3a352adaa099f7659f8cc,,,,,,,,,,,,,,,,,,,,FF,,,,,,,,7,0.794,,,,,,,,,,,,,,,,,,,,,,,,,,,,1,51,123.5,1,0,0,response1disk,7,45,-9,2.5,1,0,0,rectangle,-9,2.5,1,0,0,3,1,0,0.002,-9,2.5,1,0,0,0,44,44,137,1,,,,,,,,,,,,,,,,,,,,,
,,,,,,,,,,,,,,,,,,,,,,,,,,,,,,,,,,,,,,,,,,,5efa10c6bb1e270bba6fb8d8,5ff3a3b2fd62fb9a4e4efc0e,2021-01-04_18h24.47.854,Colour_Similarity_Experiment_v1,2020.1.2,Win32,60,5ff3a352adaa099f7659f8cc,,,,,,,,,,,,,,,,,,,,PF,,,,,,,,4,2.396,,,,,,,,,,,,,,,,,,,,,,,,,,,,8,53,-132.5,1,0,0,response3disk,5,46,13,-11.5,1,0,0,rectangle,13,-11.5,1,0,0,3,7,0,0.001,13,-11.5,1,0,0,0,45,45,98,1,,,,,,,,,,,,,,,,,,,,,
,,,,,,,,,,,,,,,,,,,,,,,,,,,,,,,,,,,,,,,,,,,5efa10c6bb1e270bba6fb8d8,5ff3a3b2fd62fb9a4e4efc0e,2021-01-04_18h24.47.854,Colour_Similarity_Experiment_v1,2020.1.2,Win32,60,5ff3a352adaa099f7659f8cc,,,,,,,,,,,,,,,,,,,,FF,,,,,,,,3,1.602,,,,,,,,,,,,,,,,,,,,,,,,,,,,6,-56,-140.5,1,0,0,response5disk,8,47,-7,-4.5,1,0,0,rectangle,-7,-4.5,1,0,0,3,0,0,0.001,-7,-4.5,1,0,0,0,46,46,133,1,,,,,,,,,,,,,,,,,,,,,
,,,,,,,,,,,,,,,,,,,,,,,,,,,,,,,,,,,,,,,,,,,5efa10c6bb1e270bba6fb8d8,5ff3a3b2fd62fb9a4e4efc0e,2021-01-04_18h24.47.854,Colour_Similarity_Experiment_v1,2020.1.2,Win32,60,5ff3a352adaa099f7659f8cc,,,,,,,,,,,,,,,,,,,,FF,,,,,,,,3,1.278,,,,,,,,,,,,,,,,,,,,,,,,,,,,9,-77,-118.5,1,0,0,response5disk,6,48,-16,-11.5,1,0,0,rectangle,-16,-11.5,1,0,0,3,1,0,0.003,-16,-11.5,1,0,0,0,47,47,117,1,,,,,,,,,,,,,,,,,,,,,
,,,,,,,,,,,,,,,,,,,,,,,,,,,,,,,,,,,,,,,,,,,5efa10c6bb1e270bba6fb8d8,5ff3a3b2fd62fb9a4e4efc0e,2021-01-04_18h24.47.854,Colour_Similarity_Experiment_v1,2020.1.2,Win32,60,5ff3a352adaa099f7659f8cc,,,,,,,,,,,,,,,,,,,,FF,,,,,,,,0,1.527,,,,,,,,,,,,,,,,,,,,,,,,,,,,6,-50,141.5,1,0,0,response7disk,6,49,1,-19.5,1,0,0,rectangle,1,-19.5,1,0,0,3,4,0,0.001,1,-19.5,1,0,0,0,48,48,91,1,,,,,,,,,,,,,,,,,,,,,
,,,,,,,,,,,,,,,,,,,,,,,,,,,,,,,,,,,,,,,,,,,5efa10c6bb1e270bba6fb8d8,5ff3a3b2fd62fb9a4e4efc0e,2021-01-04_18h24.47.854,Colour_Similarity_Experiment_v1,2020.1.2,Win32,60,5ff3a352adaa099f7659f8cc,,,,,,,,,,,,,,,,,,,,FF,,,,,,,,7,0.882,,,,,,,,,,,,,,,,,,,,,,,,,,,,8,38,131.5,1,0,0,response1disk,4,50,6,-2.5,1,0,0,rectangle,6,-2.5,1,0,0,3,1,0,0.008,6,-2.5,1,0,0,0,49,49,88,1,,,,,,,,,,,,,,,,,,,,,
,,,,,,,,,,,,,,,,,,,,,,,,,,,,,,,,,,,,,,,,,,,5efa10c6bb1e270bba6fb8d8,5ff3a3b2fd62fb9a4e4efc0e,2021-01-04_18h24.47.854,Colour_Similarity_Experiment_v1,2020.1.2,Win32,60,5ff3a352adaa099f7659f8cc,,,,,,,,,,,,,,,,,,,,FF,,,,,,,,6,1.224,,,,,,,,,,,,,,,,,,,,,,,,,,,,6,113,72.5,1,0,0,response1disk,4,51,23,2.5,1,0,0,rectangle,23,2.5,1,0,0,3,1,0,0.001,23,2.5,1,0,0,0,50,50,56,1,,,,,,,,,,,,,,,,,,,,,
,,,,,,,,,,,,,,,,,,,,,,,,,,,,,,,,,,,,,,,,,,,5efa10c6bb1e270bba6fb8d8,5ff3a3b2fd62fb9a4e4efc0e,2021-01-04_18h24.47.854,Colour_Similarity_Experiment_v1,2020.1.2,Win32,60,5ff3a352adaa099f7659f8cc,,,,,,,,,,,,,,,,,,,,FF,,,,,,,,3,1.189,,,,,,,,,,,,,,,,,,,,,,,,,,,,2,-47,-105.5,1,0,0,response5disk,3,52,3,3.5,1,0,0,rectangle,-41,140.5,1,0,0,0,0,1,2.168,-25,1.5,1,0,0,0,51,51,104,1,response7disk_3,rectangle,,,,,,,,,,,,,,,,,,,
,,,,,,,,,,,,,,,,,,,,,,,,,,,,,,,,,,,,,,,,,,,5efa10c6bb1e270bba6fb8d8,5ff3a3b2fd62fb9a4e4efc0e,2021-01-04_18h24.47.854,Colour_Similarity_Experiment_v1,2020.1.2,Win32,60,5ff3a352adaa099f7659f8cc,,,,,,,,,,,,,,,,,,,,FF,,,,,,,,7,0.695,,,,,,,,,,,,,,,,,,,,,,,,,,,,7,47,111.5,1,0,0,response1disk,2,53,20,-17.5,1,0,0,rectangle,20,-17.5,1,0,0,0,2,0,0.004,20,-17.5,1,0,0,0,52,52,138,1,,,,,,,,,,,,,,,,,,,,,
,,,,,,,,,,,,,,,,,,,,,,,,,,,,,,,,,,,,,,,,,,,5efa10c6bb1e270bba6fb8d8,5ff3a3b2fd62fb9a4e4efc0e,2021-01-04_18h24.47.854,Colour_Similarity_Experiment_v1,2020.1.2,Win32,60,5ff3a352adaa099f7659f8cc,,,,,,,,,,,,,,,,,,,,FF,,,,,,,,7,0.643,,,,,,,,,,,,,,,,,,,,,,,,,,,,8,52,105.5,1,0,0,response1disk,2,54,31,-12.5,1,0,0,rectangle,31,-12.5,1,0,0,0,0,0,0.005,31,-12.5,1,0,0,0,53,53,22,1,,,,,,,,,,,,,,,,,,,,,
,,,,,,,,,,,,,,,,,,,,,,,,,,,,,,,,,,,,,,,,,,,5efa10c6bb1e270bba6fb8d8,5ff3a3b2fd62fb9a4e4efc0e,2021-01-04_18h24.47.854,Colour_Similarity_Experiment_v1,2020.1.2,Win32,60,5ff3a352adaa099f7659f8cc,,,,,,,,,,,,,,,,,,,,PF,,,,,,,,2,0.983,,,,,,,,,,,,,,,,,,,,,,,,,,,,5,-76,-58.5,1,0,0,response5disk,4,55,12,-14.5,1,0,0,rectangle,12,-14.5,1,0,0,0,3,0,0,12,-14.5,1,0,0,0,54,54,54,1,,,,,,,,,,,,,,,,,,,,,
,,,,,,,,,,,,,,,,,,,,,,,,,,,,,,,,,,,,,,,,,,,5efa10c6bb1e270bba6fb8d8,5ff3a3b2fd62fb9a4e4efc0e,2021-01-04_18h24.47.854,Colour_Similarity_Experiment_v1,2020.1.2,Win32,60,5ff3a352adaa099f7659f8cc,,,,,,,,,,,,,,,,,,,,PF,,,,,,,,7,0.917,,,,,,,,,,,,,,,,,,,,,,,,,,,,4,61,105.5,1,0,0,response1disk,7,56,17,2.5,1,0,0,rectangle,17,2.5,1,0,0,0,0,0,0,17,2.5,1,0,0,0,55,55,38,1,,,,,,,,,,,,,,,,,,,,,
,,,,,,,,,,,,,,,,,,,,,,,,,,,,,,,,,,,,,,,,,,,5efa10c6bb1e270bba6fb8d8,5ff3a3b2fd62fb9a4e4efc0e,2021-01-04_18h24.47.854,Colour_Similarity_Experiment_v1,2020.1.2,Win32,60,5ff3a352adaa099f7659f8cc,,,,,,,,,,,,,,,,,,,,FF,,,,,,,,2,0.969,,,,,,,,,,,,,,,,,,,,,,,,,,,,5,-111,-50.5,1,0,0,response5disk,4,57,19,-15.5,1,0,0,rectangle,19,-15.5,1,0,0,0,0,0,0.001,19,-15.5,1,0,0,0,56,56,8,1,,,,,,,,,,,,,,,,,,,,,
,,,,,,,,,,,,,,,,,,,,,,,,,,,,,,,,,,,,,,,,,,,5efa10c6bb1e270bba6fb8d8,5ff3a3b2fd62fb9a4e4efc0e,2021-01-04_18h24.47.854,Colour_Similarity_Experiment_v1,2020.1.2,Win32,60,5ff3a352adaa099f7659f8cc,,,,,,,,,,,,,,,,,,,,FF,,,,,,,,7,1.088,,,,,,,,,,,,,,,,,,,,,,,,,,,,8,51,149.5,1,0,0,response1disk,5,58,-1,3.5,1,0,0,rectangle,-1,3.5,1,0,0,0,1,0,0,-1,3.5,1,0,0,0,57,57,152,1,,,,,,,,,,,,,,,,,,,,,
,,,,,,,,,,,,,,,,,,,,,,,,,,,,,,,,,,,,,,,,,,,5efa10c6bb1e270bba6fb8d8,5ff3a3b2fd62fb9a4e4efc0e,2021-01-04_18h24.47.854,Colour_Similarity_Experiment_v1,2020.1.2,Win32,60,5ff3a352adaa099f7659f8cc,,,,,,,,,,,,,,,,,,,,PF,,,,,,,,7,0.704,,,,,,,,,,,,,,,,,,,,,,,,,,,,7,47,128.5,1,0,0,response1disk,9,59,8,11.5,1,0,0,rectangle,8,11.5,1,0,0,0,5,0,0.001,8,11.5,1,0,0,0,58,58,10,1,,,,,,,,,,,,,,,,,,,,,
,,,,,,,,,,,,,,,,,,,,,,,,,,,,,,,,,,,,,,,,,,,5efa10c6bb1e270bba6fb8d8,5ff3a3b2fd62fb9a4e4efc0e,2021-01-04_18h24.47.854,Colour_Similarity_Experiment_v1,2020.1.2,Win32,60,5ff3a352adaa099f7659f8cc,,,,,,,,,,,,,,,,,,,,FF,,,,,,,,7,1.057,,,,,,,,,,,,,,,,,,,,,,,,,,,,2,48,142.5,1,0,0,response1disk,5,60,-9,-1.5,1,0,0,rectangle,-9,-1.5,1,0,0,0,6,0,0.001,-9,-1.5,1,0,0,0,59,59,80,1,,,,,,,,,,,,,,,,,,,,,
,,,,,,,,,,,,,,,,,,,,,,,,,,,,,,,,,,,,,,,,,,,5efa10c6bb1e270bba6fb8d8,5ff3a3b2fd62fb9a4e4efc0e,2021-01-04_18h24.47.854,Colour_Similarity_Experiment_v1,2020.1.2,Win32,60,5ff3a352adaa099f7659f8cc,,,,,,,,,,,,,,,,,,,,PF,,,,,,,,7,0.93,,,,,,,,,,,,,,,,,,,,,,,,,,,,3,44,127.5,1,0,0,response1disk,7,61,21,-0.5,1,0,0,rectangle,21,-0.5,1,0,0,0,7,0,0.002,21,-0.5,1,0,0,0,60,60,41,1,,,,,,,,,,,,,,,,,,,,,
,,,,,,,,,,,,,,,,,,,,,,,,,,,,,,,,,,,,,,,,,,,5efa10c6bb1e270bba6fb8d8,5ff3a3b2fd62fb9a4e4efc0e,2021-01-04_18h24.47.854,Colour_Similarity_Experiment_v1,2020.1.2,Win32,60,5ff3a352adaa099f7659f8cc,,,,,,,,,,,,,,,,,,,,FF,,,,,,,,2,1.126,,,,,,,,,,,,,,,,,,,,,,,,,,,,4,-82,-63.5,1,0,0,response5disk,6,62,21,-1.5,1,0,0,rectangle,21,-1.5,1,0,0,0,7,0,0.002,21,-1.5,1,0,0,0,61,61,122,1,,,,,,,,,,,,,,,,,,,,,
,,,,,,,,,,,,,,,,,,,,,,,,,,,,,,,,,,,,,,,,,,,5efa10c6bb1e270bba6fb8d8,5ff3a3b2fd62fb9a4e4efc0e,2021-01-04_18h24.47.854,Colour_Similarity_Experiment_v1,2020.1.2,Win32,60,5ff3a352adaa099f7659f8cc,,,,,,,,,,,,,,,,,,,,PF,,,,,,,,7,0.895,,,,,,,,,,,,,,,,,,,,,,,,,,,,1,53,110.5,1,0,0,response1disk,3,63,16,0.5,1,0,0,rectangle,16,0.5,1,0,0,0,3,0,0.003,16,0.5,1,0,0,0,62,62,1,1,,,,,,,,,,,,,,,,,,,,,
,,,,,,,,,,,,,,,,,,,,,,,,,,,,,,,,,,,,,,,,,,,5efa10c6bb1e270bba6fb8d8,5ff3a3b2fd62fb9a4e4efc0e,2021-01-04_18h24.47.854,Colour_Similarity_Experiment_v1,2020.1.2,Win32,60,5ff3a352adaa099f7659f8cc,,,,,,,,,,,,,,,,,,,,PF,,,,,,,,5,1.959,,,,,,,,,,,,,,,,,,,,,,,,,,,,3,115,-46.5,1,0,0,response3disk,2,64,6,7.5,1,0,0,rectangle,-51,-132.5,1,0,0,3,3,1,1.792,32,-2.5,1,0,0,0,63,63,36,1,response5disk_3,rectangle,,,,,,,,,,,,,,,,,,,
,,,,,,,,,,,,,,,,,,,,,,,,,,,,,,,,,,,,,,,,,,,5efa10c6bb1e270bba6fb8d8,5ff3a3b2fd62fb9a4e4efc0e,2021-01-04_18h24.47.854,Colour_Similarity_Experiment_v1,2020.1.2,Win32,60,5ff3a352adaa099f7659f8cc,,,,,,,,,,,,,,,,,,,,PF,,,,,,,,7,1.179,,,,,,,,,,,,,,,,,,,,,,,,,,,,9,75,114.5,1,0,0,response1disk,3,65,21,-2.5,1,0,0,rectangle,21,-2.5,1,0,0,3,6,0,0.001,21,-2.5,1,0,0,0,64,64,119,1,,,,,,,,,,,,,,,,,,,,,
,,,,,,,,,,,,,,,,,,,,,,,,,,,,,,,,,,,,,,,,,,,5efa10c6bb1e270bba6fb8d8,5ff3a3b2fd62fb9a4e4efc0e,2021-01-04_18h24.47.854,Colour_Similarity_Experiment_v1,2020.1.2,Win32,60,5ff3a352adaa099f7659f8cc,,,,,,,,,,,,,,,,,,,,FF,,,,,,,,7,0.831,,,,,,,,,,,,,,,,,,,,,,,,,,,,9,43,114.5,1,0,0,response1disk,4,66,12,-5.5,1,0,0,rectangle,12,-5.5,1,0,0,3,5,0,0.001,12,-5.5,1,0,0,0,65,65,60,1,,,,,,,,,,,,,,,,,,,,,
,,,,,,,,,,,,,,,,,,,,,,,,,,,,,,,,,,,,,,,,,,,5efa10c6bb1e270bba6fb8d8,5ff3a3b2fd62fb9a4e4efc0e,2021-01-04_18h24.47.854,Colour_Similarity_Experiment_v1,2020.1.2,Win32,60,5ff3a352adaa099f7659f8cc,,,,,,,,,,,,,,,,,,,,PF,,,,,,,,3,1.288,,,,,,,,,,,,,,,,,,,,,,,,,,,,9,-67,-101.5,1,0,0,response5disk,8,67,-36,-6.5,1,0,0,rectangle,-36,-6.5,1,0,0,3,1,0,0.001,-36,-6.5,1,0,0,0,66,66,67,1,,,,,,,,,,,,,,,,,,,,,
,,,,,,,,,,,,,,,,,,,,,,,,,,,,,,,,,,,,,,,,,,,5efa10c6bb1e270bba6fb8d8,5ff3a3b2fd62fb9a4e4efc0e,2021-01-04_18h24.47.854,Colour_Similarity_Experiment_v1,2020.1.2,Win32,60,5ff3a352adaa099f7659f8cc,,,,,,,,,,,,,,,,,,,,FF,,,,,,,,7,0.707,,,,,,,,,,,,,,,,,,,,,,,,,,,,1,73,103.5,1,0,0,response1disk,4,68,6,-4.5,1,0,0,rectangle,6,-4.5,1,0,0,3,4,0,0.013,6,-4.5,1,0,0,0,67,67,135,1,,,,,,,,,,,,,,,,,,,,,
,,,,,,,,,,,,,,,,,,,,,,,,,,,,,,,,,,,,,,,,,,,5efa10c6bb1e270bba6fb8d8,5ff3a3b2fd62fb9a4e4efc0e,2021-01-04_18h24.47.854,Colour_Similarity_Experiment_v1,2020.1.2,Win32,60,5ff3a352adaa099f7659f8cc,,,,,,,,,,,,,,,,,,,,FF,,,,,,,,7,0.803,,,,,,,,,,,,,,,,,,,,,,,,,,,,8,38,110.5,1,0,0,response1disk,6,69,13,5.5,1,0,0,rectangle,13,5.5,1,0,0,3,5,0,0.001,13,5.5,1,0,0,0,68,68,37,1,,,,,,,,,,,,,,,,,,,,,
,,,,,,,,,,,,,,,,,,,,,,,,,,,,,,,,,,,,,,,,,,,5efa10c6bb1e270bba6fb8d8,5ff3a3b2fd62fb9a4e4efc0e,2021-01-04_18h24.47.854,Colour_Similarity_Experiment_v1,2020.1.2,Win32,60,5ff3a352adaa099f7659f8cc,,,,,,,,,,,,,,,,,,,,FF,,,,,,,,7,1.413,,,,,,,,,,,,,,,,,,,,,,,,,,,,9,38,92.5,1,0,0,response1disk,7,70,10,-3.5,1,0,0,rectangle,10,-3.5,1,0,0,3,3,0,0,10,-3.5,1,0,0,0,69,69,100,1,,,,,,,,,,,,,,,,,,,,,
,,,,,,,,,,,,,,,,,,,,,,,,,,,,,,,,,,,,,,,,,,,5efa10c6bb1e270bba6fb8d8,5ff3a3b2fd62fb9a4e4efc0e,2021-01-04_18h24.47.854,Colour_Similarity_Experiment_v1,2020.1.2,Win32,60,5ff3a352adaa099f7659f8cc,,,,,,,,,,,,,,,,,,,,FF,,,,,,,,7,0.875,,,,,,,,,,,,,,,,,,,,,,,,,,,,2,56,120.5,1,0,0,response1disk,1,71,-1,-18.5,1,0,0,rectangle,-1,-18.5,1,0,0,3,1,0,0.007,-1,-18.5,1,0,0,0,70,70,85,1,,,,,,,,,,,,,,,,,,,,,
,,,,,,,,,,,,,,,,,,,,,,,,,,,,,,,,,,,,,,,,,,,5efa10c6bb1e270bba6fb8d8,5ff3a3b2fd62fb9a4e4efc0e,2021-01-04_18h24.47.854,Colour_Similarity_Experiment_v1,2020.1.2,Win32,60,5ff3a352adaa099f7659f8cc,,,,,,,,,,,,,,,,,,,,FF,,,,,,,,7,1.179,,,,,,,,,,,,,,,,,,,,,,,,,,,,3,45,107.5,1,0,0,response1disk,9,72,11,2.5,1,0,0,rectangle,11,2.5,1,0,0,3,2,0,0.004,11,2.5,1,0,0,0,71,71,143,1,,,,,,,,,,,,,,,,,,,,,
,,,,,,,,,,,,,,,,,,,,,,,,,,,,,,,,,,,,,,,,,,,5efa10c6bb1e270bba6fb8d8,5ff3a3b2fd62fb9a4e4efc0e,2021-01-04_18h24.47.854,Colour_Similarity_Experiment_v1,2020.1.2,Win32,60,5ff3a352adaa099f7659f8cc,,,,,,,,,,,,,,,,,,,,FF,,,,,,,,7,1.085,,,,,,,,,,,,,,,,,,,,,,,,,,,,3,73,140.5,1,0,0,response1disk,1,73,34,21.5,1,0,0,rectangle,34,21.5,1,0,0,6,6,0,0.001,34,21.5,1,0,0,0,72,72,125,1,,,,,,,,,,,,,,,,,,,,,
,,,,,,,,,,,,,,,,,,,,,,,,,,,,,,,,,,,,,,,,,,,5efa10c6bb1e270bba6fb8d8,5ff3a3b2fd62fb9a4e4efc0e,2021-01-04_18h24.47.854,Colour_Similarity_Experiment_v1,2020.1.2,Win32,60,5ff3a352adaa099f7659f8cc,,,,,,,,,,,,,,,,,,,,PF,,,,,,,,7,1.112,,,,,,,,,,,,,,,,,,,,,,,,,,,,2,57,140.5,1,0,0,response1disk,8,74,2,13.5,1,0,0,rectangle,2,13.5,1,0,0,6,3,0,0.002,2,13.5,1,0,0,0,73,73,52,1,,,,,,,,,,,,,,,,,,,,,
,,,,,,,,,,,,,,,,,,,,,,,,,,,,,,,,,,,,,,,,,,,5efa10c6bb1e270bba6fb8d8,5ff3a3b2fd62fb9a4e4efc0e,2021-01-04_18h24.47.854,Colour_Similarity_Experiment_v1,2020.1.2,Win32,60,5ff3a352adaa099f7659f8cc,,,,,,,,,,,,,,,,,,,,FF,,,,,,,,7,0.772,,,,,,,,,,,,,,,,,,,,,,,,,,,,7,55,154.5,1,0,0,response1disk,1,75,-9,8.5,1,0,0,rectangle,-9,8.5,1,0,0,6,5,0,0.002,-9,8.5,1,0,0,0,74,74,132,1,,,,,,,,,,,,,,,,,,,,,
,,,,,,,,,,,,,,,,,,,,,,,,,,,,,,,,,,,,,,,,,,,5efa10c6bb1e270bba6fb8d8,5ff3a3b2fd62fb9a4e4efc0e,2021-01-04_18h24.47.854,Colour_Similarity_Experiment_v1,2020.1.2,Win32,60,5ff3a352adaa099f7659f8cc,,,,,,,,,,,,,,,,,,,,FF,,,,,,,,3,1.931,,,,,,,,,,,,,,,,,,,,,,,,,,,,9,-60,-151.5,1,0,0,response5disk,1,76,-9,-14.5,1,0,0,rectangle,-9,-14.5,1,0,0,6,7,0,0.004,-9,-14.5,1,0,0,0,75,75,111,1,,,,,,,,,,,,,,,,,,,,,
,,,,,,,,,,,,,,,,,,,,,,,,,,,,,,,,,,,,,,,,,,,5efa10c6bb1e270bba6fb8d8,5ff3a3b2fd62fb9a4e4efc0e,2021-01-04_18h24.47.854,Colour_Similarity_Experiment_v1,2020.1.2,Win32,60,5ff3a352adaa099f7659f8cc,,,,,,,,,,,,,,,,,,,,PF,,,,,,,,7,0.906,,,,,,,,,,,,,,,,,,,,,,,,,,,,6,63,135.5,1,0,0,response1disk,2,77,-2,-2.5,1,0,0,rectangle,-2,-2.5,1,0,0,6,6,0,0.002,-2,-2.5,1,0,0,0,76,76,130,1,,,,,,,,,,,,,,,,,,,,,
,,,,,,,,,,,,,,,,,,,,,,,,,,,,,,,,,,,,,,,,,,,5efa10c6bb1e270bba6fb8d8,5ff3a3b2fd62fb9a4e4efc0e,2021-01-04_18h24.47.854,Colour_Similarity_Experiment_v1,2020.1.2,Win32,60,5ff3a352adaa099f7659f8cc,,,,,,,,,,,,,,,,,,,,PF,,,,,,,,6,1.399,,,,,,,,,,,,,,,,,,,,,,,,,,,,1,114,49.5,1,0,0,response1disk,8,78,34,-3.5,1,0,0,rectangle,34,-3.5,1,0,0,6,7,0,0.001,34,-3.5,1,0,0,0,77,77,65,1,,,,,,,,,,,,,,,,,,,,,
,,,,,,,,,,,,,,,,,,,,,,,,,,,,,,,,,,,,,,,,,,,5efa10c6bb1e270bba6fb8d8,5ff3a3b2fd62fb9a4e4efc0e,2021-01-04_18h24.47.854,Colour_Similarity_Experiment_v1,2020.1.2,Win32,60,5ff3a352adaa099f7659f8cc,,,,,,,,,,,,,,,,,,,,FF,,,,,,,,5,1.074,,,,,,,,,,,,,,,,,,,,,,,,,,,,7,122,-47.5,1,0,0,response3disk,8,79,23,-15.5,1,0,0,rectangle,84,51.5,1,0,0,6,6,1,1.422,-6,-6.5,1,0,0,0,78,78,97,1,response1disk_3,rectangle,,,,,,,,,,,,,,,,,,,
,,,,,,,,,,,,,,,,,,,,,,,,,,,,,,,,,,,,,,,,,,,5efa10c6bb1e270bba6fb8d8,5ff3a3b2fd62fb9a4e4efc0e,2021-01-04_18h24.47.854,Colour_Similarity_Experiment_v1,2020.1.2,Win32,60,5ff3a352adaa099f7659f8cc,,,,,,,,,,,,,,,,,,,,PF,,,,,,,,7,0.595,,,,,,,,,,,,,,,,,,,,,,,,,,,,6,54,98.5,1,0,0,response1disk,8,80,14,6.5,1,0,0,rectangle,14,6.5,1,0,0,6,5,0,0.001,14,6.5,1,0,0,0,79,79,64,1,,,,,,,,,,,,,,,,,,,,,
,,,,,,,,,,,,,,,,,,,,,,,,,,,,,,,,,,,,,,,,,,,5efa10c6bb1e270bba6fb8d8,5ff3a3b2fd62fb9a4e4efc0e,2021-01-04_18h24.47.854,Colour_Similarity_Experiment_v1,2020.1.2,Win32,60,5ff3a352adaa099f7659f8cc,,,,,,,,,,,,,,,,,,,,PF,,,,,,,,7,0.703,,,,,,,,,,,,,,,,,,,,,,,,,,,,2,57,119.5,1,0,0,response1disk,7,81,9,10.5,1,0,0,rectangle,9,10.5,1,0,0,6,2,0,0.002,9,10.5,1,0,0,0,80,80,107,1,,,,,,,,,,,,,,,,,,,,,
,,,,,,,,,,,,,,,,,,,,,,,,,,,,,,,,,,,,,,,,,,,5efa10c6bb1e270bba6fb8d8,5ff3a3b2fd62fb9a4e4efc0e,2021-01-04_18h24.47.854,Colour_Similarity_Experiment_v1,2020.1.2,Win32,60,5ff3a352adaa099f7659f8cc,,,,,,,,,,,,,,,,,,,,PF,,,,,,,,0,0.937,,,,,,,,,,,,,,,,,,,,,,,,,,,,2,-47,123.5,1,0,0,response7disk,2,82,-3,-7.5,1,0,0,rectangle,-3,-7.5,1,0,0,6,0,0,0.003,-3,-7.5,1,0,0,0,81,81,14,1,,,,,,,,,,,,,,,,,,,,,
,,,,,,,,,,,,,,,,,,,,,,,,,,,,,,,,,,,,,,,,,,,5efa10c6bb1e270bba6fb8d8,5ff3a3b2fd62fb9a4e4efc0e,2021-01-04_18h24.47.854,Colour_Similarity_Experiment_v1,2020.1.2,Win32,60,5ff3a352adaa099f7659f8cc,,,,,,,,,,,,,,,,,,,,FF,,,,,,,,7,0.644,,,,,,,,,,,,,,,,,,,,,,,,,,,,9,58,122.5,1,0,0,response1disk,5,83,12,-3.5,1,0,0,rectangle,12,-3.5,1,0,0,6,2,0,0.001,12,-3.5,1,0,0,0,82,82,128,1,,,,,,,,,,,,,,,,,,,,,
,,,,,,,,,,,,,,,,,,,,,,,,,,,,,,,,,,,,,,,,,,,5efa10c6bb1e270bba6fb8d8,5ff3a3b2fd62fb9a4e4efc0e,2021-01-04_18h24.47.854,Colour_Similarity_Experiment_v1,2020.1.2,Win32,60,5ff3a352adaa099f7659f8cc,,,,,,,,,,,,,,,,,,,,PF,,,,,,,,3,1.594,,,,,,,,,,,,,,,,,,,,,,,,,,,,5,-29,-108.5,1,0,0,response5disk,7,84,17,0.5,1,0,0,rectangle,17,0.5,1,0,0,6,1,0,0.001,17,0.5,1,0,0,0,83,83,146,1,,,,,,,,,,,,,,,,,,,,,
,,,,,,,,,,,,,,,,,,,,,,,,,,,,,,,,,,,,,,,,,,,5efa10c6bb1e270bba6fb8d8,5ff3a3b2fd62fb9a4e4efc0e,2021-01-04_18h24.47.854,Colour_Similarity_Experiment_v1,2020.1.2,Win32,60,5ff3a352adaa099f7659f8cc,,,,,,,,,,,,,,,,,,,,FF,,,,,,,,6,1.43,,,,,,,,,,,,,,,,,,,,,,,,,,,,2,111,52.5,1,0,0,response1disk,6,85,32,-6.5,1,0,0,rectangle,32,-6.5,1,0,0,6,2,0,0.002,32,-6.5,1,0,0,0,84,84,40,1,,,,,,,,,,,,,,,,,,,,,
,,,,,,,,,,,,,,,,,,,,,,,,,,,,,,,,,,,,,,,,,,,5efa10c6bb1e270bba6fb8d8,5ff3a3b2fd62fb9a4e4efc0e,2021-01-04_18h24.47.854,Colour_Similarity_Experiment_v1,2020.1.2,Win32,60,5ff3a352adaa099f7659f8cc,,,,,,,,,,,,,,,,,,,,FF,,,,,,,,7,0.972,,,,,,,,,,,,,,,,,,,,,,,,,,,,5,54,111.5,1,0,0,response1disk,9,86,15,6.5,1,0,0,rectangle,15,6.5,1,0,0,6,0,0,0,15,6.5,1,0,0,0,85,85,61,1,,,,,,,,,,,,,,,,,,,,,
,,,,,,,,,,,,,,,,,,,,,,,,,,,,,,,,,,,,,,,,,,,5efa10c6bb1e270bba6fb8d8,5ff3a3b2fd62fb9a4e4efc0e,2021-01-04_18h24.47.854,Colour_Similarity_Experiment_v1,2020.1.2,Win32,60,5ff3a352adaa099f7659f8cc,,,,,,,,,,,,,,,,,,,,FF,,,,,,,,1,1.534,,,,,,,,,,,,,,,,,,,,,,,,,,,,3,-107,34.5,1,0,0,response7disk,4,87,-4,-11.5,1,0,0,rectangle,-4,-11.5,1,0,0,6,7,0,0.002,-4,-11.5,1,0,0,0,86,86,110,1,,,,,,,,,,,,,,,,,,,,,
,,,,,,,,,,,,,,,,,,,,,,,,,,,,,,,,,,,,,,,,,,,5efa10c6bb1e270bba6fb8d8,5ff3a3b2fd62fb9a4e4efc0e,2021-01-04_18h24.47.854,Colour_Similarity_Experiment_v1,2020.1.2,Win32,60,5ff3a352adaa099f7659f8cc,,,,,,,,,,,,,,,,,,,,FF,,,,,,,,7,1.573,,,,,,,,,,,,,,,,,,,,,,,,,,,,2,70,127.5,1,0,0,response1disk,4,88,25,-2.5,1,0,0,rectangle,25,-2.5,1,0,0,6,5,0,0.002,25,-2.5,1,0,0,0,87,87,145,1,,,,,,,,,,,,,,,,,,,,,
,,,,,,,,,,,,,,,,,,,,,,,,,,,,,,,,,,,,,,,,,,,5efa10c6bb1e270bba6fb8d8,5ff3a3b2fd62fb9a4e4efc0e,2021-01-04_18h24.47.854,Colour_Similarity_Experiment_v1,2020.1.2,Win32,60,5ff3a352adaa099f7659f8cc,,,,,,,,,,,,,,,,,,,,PF,,,,,,,,3,1.758,,,,,,,,,,,,,,,,,,,,,,,,,,,,1,-45,-110.5,1,0,0,response5disk,9,89,-12,-20.5,1,0,0,rectangle,-12,-20.5,1,0,0,6,5,0,0.001,-12,-20.5,1,0,0,0,88,88,15,1,,,,,,,,,,,,,,,,,,,,,
,,,,,,,,,,,,,,,,,,,,,,,,,,,,,,,,,,,,,,,,,,,5efa10c6bb1e270bba6fb8d8,5ff3a3b2fd62fb9a4e4efc0e,2021-01-04_18h24.47.854,Colour_Similarity_Experiment_v1,2020.1.2,Win32,60,5ff3a352adaa099f7659f8cc,,,,,,,,,,,,,,,,,,,,FF,,,,,,,,7,0.689,,,,,,,,,,,,,,,,,,,,,,,,,,,,7,64,130.5,1,0,0,response1disk,3,90,0,0.5,1,0,0,rectangle,0,0.5,1,0,0,6,2,0,0,0,0.5,1,0,0,0,89,89,73,1,,,,,,,,,,,,,,,,,,,,,
,,,,,,,,,,,,,,,,,,,,,,,,,,,,,,,,,,,,,,,,,,,5efa10c6bb1e270bba6fb8d8,5ff3a3b2fd62fb9a4e4efc0e,2021-01-04_18h24.47.854,Colour_Similarity_Experiment_v1,2020.1.2,Win32,60,5ff3a352adaa099f7659f8cc,,,,,,,,,,,,,,,,,,,,PF,,,,,,,,2,1.256,,,,,,,,,,,,,,,,,,,,,,,,,,,,6,-83,-82.5,1,0,0,response5disk,4,91,21,-7.5,1,0,0,rectangle,21,-7.5,1,0,0,6,7,0,0.001,21,-7.5,1,0,0,0,90,90,33,1,,,,,,,,,,,,,,,,,,,,,
,,,,,,,,,,,,,,,,,,,,,,,,,,,,,,,,,,,,,,,,,,,5efa10c6bb1e270bba6fb8d8,5ff3a3b2fd62fb9a4e4efc0e,2021-01-04_18h24.47.854,Colour_Similarity_Experiment_v1,2020.1.2,Win32,60,5ff3a352adaa099f7659f8cc,,,,,,,,,,,,,,,,,,,,PF,,,,,,,,0,0.758,,,,,,,,,,,,,,,,,,,,,,,,,,,,1,-50,109.5,1,0,0,response7disk,1,92,-12,-6.5,1,0,0,rectangle,63,118.5,1,0,0,7,7,1,1.338,-5,4.5,1,0,0,0,91,91,76,1,response1disk_3,rectangle,,,,,,,,,,,,,,,,,,,
,,,,,,,,,,,,,,,,,,,,,,,,,,,,,,,,,,,,,,,,,,,5efa10c6bb1e270bba6fb8d8,5ff3a3b2fd62fb9a4e4efc0e,2021-01-04_18h24.47.854,Colour_Similarity_Experiment_v1,2020.1.2,Win32,60,5ff3a352adaa099f7659f8cc,,,,,,,,,,,,,,,,,,,,PF,,,,,,,,1,1.412,,,,,,,,,,,,,,,,,,,,,,,,,,,,4,-133,63.5,1,0,0,response7disk,5,93,-24,6.5,1,0,0,rectangle,-24,6.5,1,0,0,7,2,0,0.001,-24,6.5,1,0,0,0,92,92,49,1,,,,,,,,,,,,,,,,,,,,,
,,,,,,,,,,,,,,,,,,,,,,,,,,,,,,,,,,,,,,,,,,,5efa10c6bb1e270bba6fb8d8,5ff3a3b2fd62fb9a4e4efc0e,2021-01-04_18h24.47.854,Colour_Similarity_Experiment_v1,2020.1.2,Win32,60,5ff3a352adaa099f7659f8cc,,,,,,,,,,,,,,,,,,,,PF,,,,,,,,7,0.528,,,,,,,,,,,,,,,,,,,,,,,,,,,,9,53,127.5,1,0,0,response1disk,7,94,5,9.5,1,0,0,rectangle,5,9.5,1,0,0,7,5,0,0.003,5,9.5,1,0,0,0,93,93,121,1,,,,,,,,,,,,,,,,,,,,,
,,,,,,,,,,,,,,,,,,,,,,,,,,,,,,,,,,,,,,,,,,,5efa10c6bb1e270bba6fb8d8,5ff3a3b2fd62fb9a4e4efc0e,2021-01-04_18h24.47.854,Colour_Similarity_Experiment_v1,2020.1.2,Win32,60,5ff3a352adaa099f7659f8cc,,,,,,,,,,,,,,,,,,,,FF,,,,,,,,7,0.694,,,,,,,,,,,,,,,,,,,,,,,,,,,,9,56,119.5,1,0,0,response1disk,2,95,15,7.5,1,0,0,rectangle,53,-126.5,1,0,0,4,4,1,1.557,0,-2.5,1,0,0,0,94,94,11,1,response3disk_3,rectangle,,,,,,,,,,,,,,,,,,,
,,,,,,,,,,,,,,,,,,,,,,,,,,,,,,,,,,,,,,,,,,,5efa10c6bb1e270bba6fb8d8,5ff3a3b2fd62fb9a4e4efc0e,2021-01-04_18h24.47.854,Colour_Similarity_Experiment_v1,2020.1.2,Win32,60,5ff3a352adaa099f7659f8cc,,,,,,,,,,,,,,,,,,,,FF,,,,,,,,0,0.802,,,,,,,,,,,,,,,,,,,,,,,,,,,,9,-53,102.5,1,0,0,response7disk,9,96,-6,-5.5,1,0,0,rectangle,-6,-5.5,1,0,0,4,4,0,0.001,-6,-5.5,1,0,0,0,95,95,17,1,,,,,,,,,,,,,,,,,,,,,
,,,,,,,,,,,,,,,,,,,,,,,,,,,,,,,,,,,,,,,,,,,5efa10c6bb1e270bba6fb8d8,5ff3a3b2fd62fb9a4e4efc0e,2021-01-04_18h24.47.854,Colour_Similarity_Experiment_v1,2020.1.2,Win32,60,5ff3a352adaa099f7659f8cc,,,,,,,,,,,,,,,,,,,,PF,,,,,,,,7,0.701,,,,,,,,,,,,,,,,,,,,,,,,,,,,4,81,104.5,1,0,0,response1disk,9,97,10,6.5,1,0,0,rectangle,10,6.5,1,0,0,4,7,0,0,10,6.5,1,0,0,0,96,96,75,1,,,,,,,,,,,,,,,,,,,,,
,,,,,,,,,,,,,,,,,,,,,,,,,,,,,,,,,,,,,,,,,,,5efa10c6bb1e270bba6fb8d8,5ff3a3b2fd62fb9a4e4efc0e,2021-01-04_18h24.47.854,Colour_Similarity_Experiment_v1,2020.1.2,Win32,60,5ff3a352adaa099f7659f8cc,,,,,,,,,,,,,,,,,,,,FF,,,,,,,,0,0.677,,,,,,,,,,,,,,,,,,,,,,,,,,,,8,-37,135.5,1,0,0,response7disk,8,98,8,7.5,1,0,0,rectangle,8,7.5,1,0,0,4,0,0,0.001,8,7.5,1,0,0,0,97,97,48,1,,,,,,,,,,,,,,,,,,,,,
,,,,,,,,,,,,,,,,,,,,,,,,,,,,,,,,,,,,,,,,,,,5efa10c6bb1e270bba6fb8d8,5ff3a3b2fd62fb9a4e4efc0e,2021-01-04_18h24.47.854,Colour_Similarity_Experiment_v1,2020.1.2,Win32,60,5ff3a352adaa099f7659f8cc,,,,,,,,,,,,,,,,,,,,PF,,,,,,,,7,0.665,,,,,,,,,,,,,,,,,,,,,,,,,,,,2,37,103.5,1,0,0,response1disk,1,99,10,11.5,1,0,0,rectangle,10,11.5,1,0,0,4,7,0,0.001,10,11.5,1,0,0,0,98,98,9,1,,,,,,,,,,,,,,,,,,,,,
,,,,,,,,,,,,,,,,,,,,,,,,,,,,,,,,,,,,,,,,,,,5efa10c6bb1e270bba6fb8d8,5ff3a3b2fd62fb9a4e4efc0e,2021-01-04_18h24.47.854,Colour_Similarity_Experiment_v1,2020.1.2,Win32,60,5ff3a352adaa099f7659f8cc,,,,,,,,,,,,,,,,,,,,PF,,,,,,,,0,0.655,,,,,,,,,,,,,,,,,,,,,,,,,,,,3,-42,137.5,1,0,0,response7disk,3,100,7,-7.5,1,0,0,rectangle,7,-7.5,1,0,0,4,6,0,0.001,7,-7.5,1,0,0,0,99,99,4,1,,,,,,,,,,,,,,,,,,,,,
,,,,,,,,,,,,,,,,,,,,,,,,,,,,,,,,,,,,,,,,,,,5efa10c6bb1e270bba6fb8d8,5ff3a3b2fd62fb9a4e4efc0e,2021-01-04_18h24.47.854,Colour_Similarity_Experiment_v1,2020.1.2,Win32,60,5ff3a352adaa099f7659f8cc,,,,,,,,,,,,,,,,,,,,FF,,,,,,,,1,0.884,,,,,,,,,,,,,,,,,,,,,,,,,,,,7,-128,42.5,1,0,0,response7disk,6,101,-3,7.5,1,0,0,rectangle,-3,7.5,1,0,0,4,2,0,0.014,-3,7.5,1,0,0,0,100,100,31,1,,,,,,,,,,,,,,,,,,,,,
,,,,,,,,,,,,,,,,,,,,,,,,,,,,,,,,,,,,,,,,,,,5efa10c6bb1e270bba6fb8d8,5ff3a3b2fd62fb9a4e4efc0e,2021-01-04_18h24.47.854,Colour_Similarity_Experiment_v1,2020.1.2,Win32,60,5ff3a352adaa099f7659f8cc,,,,,,,,,,,,,,,,,,,,PF,,,,,,,,7,0.549,,,,,,,,,,,,,,,,,,,,,,,,,,,,5,58,122.5,1,0,0,response1disk,9,102,29,13.5,1,0,0,rectangle,55,134.5,1,0,0,7,7,1,1.17,26,8.5,1,0,0,0,101,101,136,1,response1disk_3,rectangle,,,,,,,,,,,,,,,,,,,
,,,,,,,,,,,,,,,,,,,,,,,,,,,,,,,,,,,,,,,,,,,5efa10c6bb1e270bba6fb8d8,5ff3a3b2fd62fb9a4e4efc0e,2021-01-04_18h24.47.854,Colour_Similarity_Experiment_v1,2020.1.2,Win32,60,5ff3a352adaa099f7659f8cc,,,,,,,,,,,,,,,,,,,,PF,,,,,,,,7,0.683,,,,,,,,,,,,,,,,,,,,,,,,,,,,4,53,129.5,1,0,0,response1disk,2,103,16,9.5,1,0,0,rectangle,16,9.5,1,0,0,7,4,0,0.002,16,9.5,1,0,0,0,102,102,108,1,,,,,,,,,,,,,,,,,,,,,
,,,,,,,,,,,,,,,,,,,,,,,,,,,,,,,,,,,,,,,,,,,5efa10c6bb1e270bba6fb8d8,5ff3a3b2fd62fb9a4e4efc0e,2021-01-04_18h24.47.854,Colour_Similarity_Experiment_v1,2020.1.2,Win32,60,5ff3a352adaa099f7659f8cc,,,,,,,,,,,,,,,,,,,,FF,,,,,,,,1,0.956,,,,,,,,,,,,,,,,,,,,,,,,,,,,6,-114,45.5,1,0,0,response7disk,5,104,-27,-12.5,1,0,0,rectangle,-27,-12.5,1,0,0,7,6,0,0.014,-27,-12.5,1,0,0,0,103,103,126,1,,,,,,,,,,,,,,,,,,,,,
,,,,,,,,,,,,,,,,,,,,,,,,,,,,,,,,,,,,,,,,,,,5efa10c6bb1e270bba6fb8d8,5ff3a3b2fd62fb9a4e4efc0e,2021-01-04_18h24.47.854,Colour_Similarity_Experiment_v1,2020.1.2,Win32,60,5ff3a352adaa099f7659f8cc,,,,,,,,,,,,,,,,,,,,FF,,,,,,,,7,0.501,,,,,,,,,,,,,,,,,,,,,,,,,,,,3,33,94.5,1,0,0,response1disk,2,105,-7,-6.5,1,0,0,rectangle,-7,-6.5,1,0,0,7,4,0,0.001,-7,-6.5,1,0,0,0,104,104,93,1,,,,,,,,,,,,,,,,,,,,,
,,,,,,,,,,,,,,,,,,,,,,,,,,,,,,,,,,,,,,,,,,,5efa10c6bb1e270bba6fb8d8,5ff3a3b2fd62fb9a4e4efc0e,2021-01-04_18h24.47.854,Colour_Similarity_Experiment_v1,2020.1.2,Win32,60,5ff3a352adaa099f7659f8cc,,,,,,,,,,,,,,,,,,,,FF,,,,,,,,7,1.168,,,,,,,,,,,,,,,,,,,,,,,,,,,,3,58,87.5,1,0,0,response1disk,7,106,6,-3.5,1,0,0,rectangle,6,-3.5,1,0,0,7,6,0,0.001,6,-3.5,1,0,0,0,105,105,118,1,,,,,,,,,,,,,,,,,,,,,
,,,,,,,,,,,,,,,,,,,,,,,,,,,,,,,,,,,,,,,,,,,5efa10c6bb1e270bba6fb8d8,5ff3a3b2fd62fb9a4e4efc0e,2021-01-04_18h24.47.854,Colour_Similarity_Experiment_v1,2020.1.2,Win32,60,5ff3a352adaa099f7659f8cc,,,,,,,,,,,,,,,,,,,,PF,,,,,,,,6,3.102,,,,,,,,,,,,,,,,,,,,,,,,,,,,5,144,37.5,1,0,0,response1disk,2,107,7,-4.5,1,0,0,rectangle,7,-4.5,1,0,0,7,1,0,0.002,7,-4.5,1,0,0,0,106,106,129,1,,,,,,,,,,,,,,,,,,,,,
,,,,,,,,,,,,,,,,,,,,,,,,,,,,,,,,,,,,,,,,,,,5efa10c6bb1e270bba6fb8d8,5ff3a3b2fd62fb9a4e4efc0e,2021-01-04_18h24.47.854,Colour_Similarity_Experiment_v1,2020.1.2,Win32,60,5ff3a352adaa099f7659f8cc,,,,,,,,,,,,,,,,,,,,FF,,,,,,,,5,1.065,,,,,,,,,,,,,,,,,,,,,,,,,,,,7,75,-42.5,1,0,0,response3disk,5,108,2,-20.5,1,0,0,rectangle,2,-20.5,1,0,0,7,0,0,0.002,2,-20.5,1,0,0,0,107,107,156,1,,,,,,,,,,,,,,,,,,,,,
,,,,,,,,,,,,,,,,,,,,,,,,,,,,,,,,,,,,,,,,,,,5efa10c6bb1e270bba6fb8d8,5ff3a3b2fd62fb9a4e4efc0e,2021-01-04_18h24.47.854,Colour_Similarity_Experiment_v1,2020.1.2,Win32,60,5ff3a352adaa099f7659f8cc,,,,,,,,,,,,,,,,,,,,FF,,,,,,,,1,1.188,,,,,,,,,,,,,,,,,,,,,,,,,,,,3,-99,30.5,1,0,0,response7disk,5,109,22,-1.5,1,0,0,rectangle,22,-1.5,1,0,0,7,6,0,0.001,22,-1.5,1,0,0,0,108,108,101,1,,,,,,,,,,,,,,,,,,,,,
,,,,,,,,,,,,,,,,,,,,,,,,,,,,,,,,,,,,,,,,,,,5efa10c6bb1e270bba6fb8d8,5ff3a3b2fd62fb9a4e4efc0e,2021-01-04_18h24.47.854,Colour_Similarity_Experiment_v1,2020.1.2,Win32,60,5ff3a352adaa099f7659f8cc,,,,,,,,,,,,,,,,,,,,PF,,,,,,,,7,1.125,,,,,,,,,,,,,,,,,,,,,,,,,,,,2,61,129.5,1,0,0,response1disk,6,110,15,-13.5,1,0,0,rectangle,15,-13.5,1,0,0,7,6,0,0.001,15,-13.5,1,0,0,0,109,109,113,1,,,,,,,,,,,,,,,,,,,,,
,,,,,,,,,,,,,,,,,,,,,,,,,,,,,,,,,,,,,,,,,,,5efa10c6bb1e270bba6fb8d8,5ff3a3b2fd62fb9a4e4efc0e,2021-01-04_18h24.47.854,Colour_Similarity_Experiment_v1,2020.1.2,Win32,60,5ff3a352adaa099f7659f8cc,,,,,,,,,,,,,,,,,,,,FF,,,,,,,,7,1.289,,,,,,,,,,,,,,,,,,,,,,,,,,,,1,45,123.5,1,0,0,response1disk,2,111,-2,-5.5,1,0,0,rectangle,-2,-5.5,1,0,0,7,7,0,0,-2,-5.5,1,0,0,0,110,110,2,1,,,,,,,,,,,,,,,,,,,,,
,,,,,,,,,,,,,,,,,,,,,,,,,,,,,,,,,,,,,,,,,,,5efa10c6bb1e270bba6fb8d8,5ff3a3b2fd62fb9a4e4efc0e,2021-01-04_18h24.47.854,Colour_Similarity_Experiment_v1,2020.1.2,Win32,60,5ff3a352adaa099f7659f8cc,,,,,,,,,,,,,,,,,,,,FF,,,,,,,,7,0.764,,,,,,,,,,,,,,,,,,,,,,,,,,,,6,37,116.5,1,0,0,response1disk,9,112,-5,12.5,1,0,0,rectangle,-50,-105.5,1,0,0,3,3,1,1.427,6,-4.5,1,0,0,0,111,111,160,1,response5disk_3,rectangle,,,,,,,,,,,,,,,,,,,
,,,,,,,,,,,,,,,,,,,,,,,,,,,,,,,,,,,,,,,,,,,5efa10c6bb1e270bba6fb8d8,5ff3a3b2fd62fb9a4e4efc0e,2021-01-04_18h24.47.854,Colour_Similarity_Experiment_v1,2020.1.2,Win32,60,5ff3a352adaa099f7659f8cc,,,,,,,,,,,,,,,,,,,,PF,,,,,,,,0,0.831,,,,,,,,,,,,,,,,,,,,,,,,,,,,9,-40,89.5,1,0,0,response7disk,9,113,-1,-5.5,1,0,0,rectangle,-1,-5.5,1,0,0,3,1,0,0,-1,-5.5,1,0,0,0,112,112,106,1,,,,,,,,,,,,,,,,,,,,,
,,,,,,,,,,,,,,,,,,,,,,,,,,,,,,,,,,,,,,,,,,,5efa10c6bb1e270bba6fb8d8,5ff3a3b2fd62fb9a4e4efc0e,2021-01-04_18h24.47.854,Colour_Similarity_Experiment_v1,2020.1.2,Win32,60,5ff3a352adaa099f7659f8cc,,,,,,,,,,,,,,,,,,,,PF,,,,,,,,7,1.135,,,,,,,,,,,,,,,,,,,,,,,,,,,,6,41,97.5,1,0,0,response1disk,1,114,14,7.5,1,0,0,rectangle,14,7.5,1,0,0,3,5,0,0.001,14,7.5,1,0,0,0,113,113,46,1,,,,,,,,,,,,,,,,,,,,,
,,,,,,,,,,,,,,,,,,,,,,,,,,,,,,,,,,,,,,,,,,,5efa10c6bb1e270bba6fb8d8,5ff3a3b2fd62fb9a4e4efc0e,2021-01-04_18h24.47.854,Colour_Similarity_Experiment_v1,2020.1.2,Win32,60,5ff3a352adaa099f7659f8cc,,,,,,,,,,,,,,,,,,,,PF,,,,,,,,7,1.923,,,,,,,,,,,,,,,,,,,,,,,,,,,,9,59,134.5,1,0,0,response1disk,1,115,34,12.5,1,0,0,rectangle,34,12.5,1,0,0,3,3,0,0,34,12.5,1,0,0,0,114,114,74,1,,,,,,,,,,,,,,,,,,,,,
,,,,,,,,,,,,,,,,,,,,,,,,,,,,,,,,,,,,,,,,,,,5efa10c6bb1e270bba6fb8d8,5ff3a3b2fd62fb9a4e4efc0e,2021-01-04_18h24.47.854,Colour_Similarity_Experiment_v1,2020.1.2,Win32,60,5ff3a352adaa099f7659f8cc,,,,,,,,,,,,,,,,,,,,PF,,,,,,,,7,0.605,,,,,,,,,,,,,,,,,,,,,,,,,,,,1,54,131.5,1,0,0,response1disk,2,116,0,3.5,1,0,0,rectangle,0,3.5,1,0,0,3,0,0,0.001,0,3.5,1,0,0,0,115,115,24,1,,,,,,,,,,,,,,,,,,,,,
,,,,,,,,,,,,,,,,,,,,,,,,,,,,,,,,,,,,,,,,,,,5efa10c6bb1e270bba6fb8d8,5ff3a3b2fd62fb9a4e4efc0e,2021-01-04_18h24.47.854,Colour_Similarity_Experiment_v1,2020.1.2,Win32,60,5ff3a352adaa099f7659f8cc,,,,,,,,,,,,,,,,,,,,FF,,,,,,,,2,1.231,,,,,,,,,,,,,,,,,,,,,,,,,,,,5,-119,-60.5,1,0,0,response5disk,3,117,7,-7.5,1,0,0,rectangle,7,-7.5,1,0,0,3,6,0,0.001,7,-7.5,1,0,0,0,116,116,25,1,,,,,,,,,,,,,,,,,,,,,
,,,,,,,,,,,,,,,,,,,,,,,,,,,,,,,,,,,,,,,,,,,5efa10c6bb1e270bba6fb8d8,5ff3a3b2fd62fb9a4e4efc0e,2021-01-04_18h24.47.854,Colour_Similarity_Experiment_v1,2020.1.2,Win32,60,5ff3a352adaa099f7659f8cc,,,,,,,,,,,,,,,,,,,,FF,,,,,,,,0,0.76,,,,,,,,,,,,,,,,,,,,,,,,,,,,7,-66,127.5,1,0,0,response7disk,7,118,-9,-17.5,1,0,0,rectangle,-9,-17.5,1,0,0,3,1,0,0.001,-9,-17.5,1,0,0,0,117,117,34,1,,,,,,,,,,,,,,,,,,,,,
,,,,,,,,,,,,,,,,,,,,,,,,,,,,,,,,,,,,,,,,,,,5efa10c6bb1e270bba6fb8d8,5ff3a3b2fd62fb9a4e4efc0e,2021-01-04_18h24.47.854,Colour_Similarity_Experiment_v1,2020.1.2,Win32,60,5ff3a352adaa099f7659f8cc,,,,,,,,,,,,,,,,,,,,FF,,,,,,,,7,1.044,,,,,,,,,,,,,,,,,,,,,,,,,,,,8,58,148.5,1,0,0,response1disk,7,119,7,7.5,1,0,0,rectangle,7,7.5,1,0,0,3,0,0,0.001,7,7.5,1,0,0,0,118,118,86,1,,,,,,,,,,,,,,,,,,,,,
,,,,,,,,,,,,,,,,,,,,,,,,,,,,,,,,,,,,,,,,,,,5efa10c6bb1e270bba6fb8d8,5ff3a3b2fd62fb9a4e4efc0e,2021-01-04_18h24.47.854,Colour_Similarity_Experiment_v1,2020.1.2,Win32,60,5ff3a352adaa099f7659f8cc,,,,,,,,,,,,,,,,,,,,FF,,,,,,,,1,1.318,,,,,,,,,,,,,,,,,,,,,,,,,,,,6,-131,56.5,1,0,0,response7disk,7,120,13,15.5,1,0,0,rectangle,13,15.5,1,0,0,3,3,0,0.001,13,15.5,1,0,0,0,119,119,18,1,,,,,,,,,,,,,,,,,,,,,
,,,,,,,,,,,,,,,,,,,,,,,,,,,,,,,,,,,,,,,,,,,5efa10c6bb1e270bba6fb8d8,5ff3a3b2fd62fb9a4e4efc0e,2021-01-04_18h24.47.854,Colour_Similarity_Experiment_v1,2020.1.2,Win32,60,5ff3a352adaa099f7659f8cc,,,,,,,,,,,,,,,,,,,,PF,,,,,,,,6,0.917,,,,,,,,,,,,,,,,,,,,,,,,,,,,6,121,58.5,1,0,0,response1disk,9,121,0,-9.5,1,0,0,rectangle,0,-9.5,1,0,0,3,0,0,0.001,0,-9.5,1,0,0,0,120,120,45,1,,,,,,,,,,,,,,,,,,,,,
,,,,,,,,,,,,,,,,,,,,,,,,,,,,,,,,,,,,,,,,,,,5efa10c6bb1e270bba6fb8d8,5ff3a3b2fd62fb9a4e4efc0e,2021-01-04_18h24.47.854,Colour_Similarity_Experiment_v1,2020.1.2,Win32,60,5ff3a352adaa099f7659f8cc,,,,,,,,,,,,,,,,,,,,PF,,,,,,,,0,0.597,,,,,,,,,,,,,,,,,,,,,,,,,,,,7,-44,106.5,1,0,0,response7disk,7,122,-4,-7.5,1,0,0,rectangle,-4,-7.5,1,0,0,3,1,0,0.001,-4,-7.5,1,0,0,0,121,121,51,1,,,,,,,,,,,,,,,,,,,,,
,,,,,,,,,,,,,,,,,,,,,,,,,,,,,,,,,,,,,,,,,,,5efa10c6bb1e270bba6fb8d8,5ff3a3b2fd62fb9a4e4efc0e,2021-01-04_18h24.47.854,Colour_Similarity_Experiment_v1,2020.1.2,Win32,60,5ff3a352adaa099f7659f8cc,,,,,,,,,,,,,,,,,,,,PF,,,,,,,,6,0.714,,,,,,,,,,,,,,,,,,,,,,,,,,,,1,126,50.5,1,0,0,response1disk,4,123,-12,-20.5,1,0,0,rectangle,-12,-20.5,1,0,0,3,6,0,0.002,-12,-20.5,1,0,0,0,122,122,139,1,,,,,,,,,,,,,,,,,,,,,
,,,,,,,,,,,,,,,,,,,,,,,,,,,,,,,,,,,,,,,,,,,5efa10c6bb1e270bba6fb8d8,5ff3a3b2fd62fb9a4e4efc0e,2021-01-04_18h24.47.854,Colour_Similarity_Experiment_v1,2020.1.2,Win32,60,5ff3a352adaa099f7659f8cc,,,,,,,,,,,,,,,,,,,,PF,,,,,,,,1,1.056,,,,,,,,,,,,,,,,,,,,,,,,,,,,8,-106,63.5,1,0,0,response7disk,9,124,5,-5.5,1,0,0,rectangle,5,-5.5,1,0,0,3,7,0,0.001,5,-5.5,1,0,0,0,123,123,42,1,,,,,,,,,,,,,,,,,,,,,
,,,,,,,,,,,,,,,,,,,,,,,,,,,,,,,,,,,,,,,,,,,5efa10c6bb1e270bba6fb8d8,5ff3a3b2fd62fb9a4e4efc0e,2021-01-04_18h24.47.854,Colour_Similarity_Experiment_v1,2020.1.2,Win32,60,5ff3a352adaa099f7659f8cc,,,,,,,,,,,,,,,,,,,,FF,,,,,,,,7,1.172,,,,,,,,,,,,,,,,,,,,,,,,,,,,1,76,153.5,1,0,0,response1disk,6,125,23,-4.5,1,0,0,rectangle,23,-4.5,1,0,0,3,3,0,0.018,23,-4.5,1,0,0,0,124,124,58,1,,,,,,,,,,,,,,,,,,,,,
,,,,,,,,,,,,,,,,,,,,,,,,,,,,,,,,,,,,,,,,,,,5efa10c6bb1e270bba6fb8d8,5ff3a3b2fd62fb9a4e4efc0e,2021-01-04_18h24.47.854,Colour_Similarity_Experiment_v1,2020.1.2,Win32,60,5ff3a352adaa099f7659f8cc,,,,,,,,,,,,,,,,,,,,PF,,,,,,,,1,3.192,,,,,,,,,,,,,,,,,,,,,,,,,,,,6,-123,45.5,1,0,0,response7disk,7,126,23,-11.5,1,0,0,rectangle,23,-11.5,1,0,0,3,1,0,0,23,-11.5,1,0,0,0,125,125,50,1,,,,,,,,,,,,,,,,,,,,,
,,,,,,,,,,,,,,,,,,,,,,,,,,,,,,,,,,,,,,,,,,,5efa10c6bb1e270bba6fb8d8,5ff3a3b2fd62fb9a4e4efc0e,2021-01-04_18h24.47.854,Colour_Similarity_Experiment_v1,2020.1.2,Win32,60,5ff3a352adaa099f7659f8cc,,,,,,,,,,,,,,,,,,,,FF,,,,,,,,2,1.205,,,,,,,,,,,,,,,,,,,,,,,,,,,,5,-122,-41.5,1,0,0,response5disk,7,127,-12,-2.5,1,0,0,rectangle,-12,-2.5,1,0,0,3,1,0,0.001,-12,-2.5,1,0,0,0,126,126,7,1,,,,,,,,,,,,,,,,,,,,,
,,,,,,,,,,,,,,,,,,,,,,,,,,,,,,,,,,,,,,,,,,,5efa10c6bb1e270bba6fb8d8,5ff3a3b2fd62fb9a4e4efc0e,2021-01-04_18h24.47.854,Colour_Similarity_Experiment_v1,2020.1.2,Win32,60,5ff3a352adaa099f7659f8cc,,,,,,,,,,,,,,,,,,,,FF,,,,,,,,7,0.816,,,,,,,,,,,,,,,,,,,,,,,,,,,,8,51,112.5,1,0,0,response1disk,3,128,19,-3.5,1,0,0,rectangle,19,-3.5,1,0,0,3,2,0,0.001,19,-3.5,1,0,0,0,127,127,154,1,,,,,,,,,,,,,,,,,,,,,
,,,,,,,,,,,,,,,,,,,,,,,,,,,,,,,,,,,,,,,,,,,5efa10c6bb1e270bba6fb8d8,5ff3a3b2fd62fb9a4e4efc0e,2021-01-04_18h24.47.854,Colour_Similarity_Experiment_v1,2020.1.2,Win32,60,5ff3a352adaa099f7659f8cc,,,,,,,,,,,,,,,,,,,,FF,,,,,,,,6,1.138,,,,,,,,,,,,,,,,,,,,,,,,,,,,1,112,44.5,1,0,0,response1disk,9,129,15,-13.5,1,0,0,rectangle,15,-13.5,1,0,0,3,3,0,0.001,15,-13.5,1,0,0,0,128,128,123,1,,,,,,,,,,,,,,,,,,,,,
,,,,,,,,,,,,,,,,,,,,,,,,,,,,,,,,,,,,,,,,,,,5efa10c6bb1e270bba6fb8d8,5ff3a3b2fd62fb9a4e4efc0e,2021-01-04_18h24.47.854,Colour_Similarity_Experiment_v1,2020.1.2,Win32,60,5ff3a352adaa099f7659f8cc,,,,,,,,,,,,,,,,,,,,PF,,,,,,,,7,1.052,,,,,,,,,,,,,,,,,,,,,,,,,,,,2,65,113.5,1,0,0,response1disk,5,130,22,13.5,1,0,0,rectangle,22,13.5,1,0,0,3,7,0,0.003,22,13.5,1,0,0,0,129,129,147,1,,,,,,,,,,,,,,,,,,,,,
,,,,,,,,,,,,,,,,,,,,,,,,,,,,,,,,,,,,,,,,,,,5efa10c6bb1e270bba6fb8d8,5ff3a3b2fd62fb9a4e4efc0e,2021-01-04_18h24.47.854,Colour_Similarity_Experiment_v1,2020.1.2,Win32,60,5ff3a352adaa099f7659f8cc,,,,,,,,,,,,,,,,,,,,PF,,,,,,,,0,0.908,,,,,,,,,,,,,,,,,,,,,,,,,,,,4,-64,135.5,1,0,0,response7disk,4,131,-4,9.5,1,0,0,rectangle,-4,9.5,1,0,0,3,3,0,0.001,-4,9.5,1,0,0,0,130,130,70,1,,,,,,,,,,,,,,,,,,,,,
,,,,,,,,,,,,,,,,,,,,,,,,,,,,,,,,,,,,,,,,,,,5efa10c6bb1e270bba6fb8d8,5ff3a3b2fd62fb9a4e4efc0e,2021-01-04_18h24.47.854,Colour_Similarity_Experiment_v1,2020.1.2,Win32,60,5ff3a352adaa099f7659f8cc,,,,,,,,,,,,,,,,,,,,PF,,,,,,,,7,1,,,,,,,,,,,,,,,,,,,,,,,,,,,,2,50,117.5,1,0,0,response1disk,4,132,5,3.5,1,0,0,rectangle,5,3.5,1,0,0,3,3,0,0.001,5,3.5,1,0,0,0,131,131,127,1,,,,,,,,,,,,,,,,,,,,,
,,,,,,,,,,,,,,,,,,,,,,,,,,,,,,,,,,,,,,,,,,,5efa10c6bb1e270bba6fb8d8,5ff3a3b2fd62fb9a4e4efc0e,2021-01-04_18h24.47.854,Colour_Similarity_Experiment_v1,2020.1.2,Win32,60,5ff3a352adaa099f7659f8cc,,,,,,,,,,,,,,,,,,,,PF,,,,,,,,7,0.793,,,,,,,,,,,,,,,,,,,,,,,,,,,,7,57,117.5,1,0,0,response1disk,8,133,4,-5.5,1,0,0,rectangle,4,-5.5,1,0,0,3,4,0,0,4,-5.5,1,0,0,0,132,132,140,1,,,,,,,,,,,,,,,,,,,,,
,,,,,,,,,,,,,,,,,,,,,,,,,,,,,,,,,,,,,,,,,,,5efa10c6bb1e270bba6fb8d8,5ff3a3b2fd62fb9a4e4efc0e,2021-01-04_18h24.47.854,Colour_Similarity_Experiment_v1,2020.1.2,Win32,60,5ff3a352adaa099f7659f8cc,,,,,,,,,,,,,,,,,,,,FF,,,,,,,,7,1.121,,,,,,,,,,,,,,,,,,,,,,,,,,,,7,48,111.5,1,0,0,response1disk,4,134,13,10.5,1,0,0,rectangle,13,10.5,1,0,0,3,4,0,0.001,13,10.5,1,0,0,0,133,133,158,1,,,,,,,,,,,,,,,,,,,,,
,,,,,,,,,,,,,,,,,,,,,,,,,,,,,,,,,,,,,,,,,,,5efa10c6bb1e270bba6fb8d8,5ff3a3b2fd62fb9a4e4efc0e,2021-01-04_18h24.47.854,Colour_Similarity_Experiment_v1,2020.1.2,Win32,60,5ff3a352adaa099f7659f8cc,,,,,,,,,,,,,,,,,,,,PF,,,,,,,,2,1.098,,,,,,,,,,,,,,,,,,,,,,,,,,,,7,-110,-57.5,1,0,0,response5disk,5,135,10,-4.5,1,0,0,rectangle,10,-4.5,1,0,0,3,5,0,0.002,10,-4.5,1,0,0,0,134,134,92,1,,,,,,,,,,,,,,,,,,,,,
,,,,,,,,,,,,,,,,,,,,,,,,,,,,,,,,,,,,,,,,,,,5efa10c6bb1e270bba6fb8d8,5ff3a3b2fd62fb9a4e4efc0e,2021-01-04_18h24.47.854,Colour_Similarity_Experiment_v1,2020.1.2,Win32,60,5ff3a352adaa099f7659f8cc,,,,,,,,,,,,,,,,,,,,PF,,,,,,,,7,1.12,,,,,,,,,,,,,,,,,,,,,,,,,,,,7,54,89.5,1,0,0,response1disk,4,136,15,-10.5,1,0,0,rectangle,15,-10.5,1,0,0,3,6,0,0.001,15,-10.5,1,0,0,0,135,135,43,1,,,,,,,,,,,,,,,,,,,,,
,,,,,,,,,,,,,,,,,,,,,,,,,,,,,,,,,,,,,,,,,,,5efa10c6bb1e270bba6fb8d8,5ff3a3b2fd62fb9a4e4efc0e,2021-01-04_18h24.47.854,Colour_Similarity_Experiment_v1,2020.1.2,Win32,60,5ff3a352adaa099f7659f8cc,,,,,,,,,,,,,,,,,,,,FF,,,,,,,,6,3.083,,,,,,,,,,,,,,,,,,,,,,,,,,,,1,149,52.5,1,0,0,response1disk,8,137,24,-0.5,1,0,0,rectangle,24,-0.5,1,0,0,3,2,0,0.001,24,-0.5,1,0,0,0,136,136,27,1,,,,,,,,,,,,,,,,,,,,,
,,,,,,,,,,,,,,,,,,,,,,,,,,,,,,,,,,,,,,,,,,,5efa10c6bb1e270bba6fb8d8,5ff3a3b2fd62fb9a4e4efc0e,2021-01-04_18h24.47.854,Colour_Similarity_Experiment_v1,2020.1.2,Win32,60,5ff3a352adaa099f7659f8cc,,,,,,,,,,,,,,,,,,,,FF,,,,,,,,3,1.28,,,,,,,,,,,,,,,,,,,,,,,,,,,,9,-58,-104.5,1,0,0,response5disk,8,138,14,-12.5,1,0,0,rectangle,14,-12.5,1,0,0,3,7,0,0.001,14,-12.5,1,0,0,0,137,137,6,1,,,,,,,,,,,,,,,,,,,,,
,,,,,,,,,,,,,,,,,,,,,,,,,,,,,,,,,,,,,,,,,,,5efa10c6bb1e270bba6fb8d8,5ff3a3b2fd62fb9a4e4efc0e,2021-01-04_18h24.47.854,Colour_Similarity_Experiment_v1,2020.1.2,Win32,60,5ff3a352adaa099f7659f8cc,,,,,,,,,,,,,,,,,,,,FF,,,,,,,,7,0.704,,,,,,,,,,,,,,,,,,,,,,,,,,,,2,51,110.5,1,0,0,response1disk,8,139,10,-2.5,1,0,0,rectangle,10,-2.5,1,0,0,3,4,0,0.002,10,-2.5,1,0,0,0,138,138,62,1,,,,,,,,,,,,,,,,,,,,,
,,,,,,,,,,,,,,,,,,,,,,,,,,,,,,,,,,,,,,,,,,,5efa10c6bb1e270bba6fb8d8,5ff3a3b2fd62fb9a4e4efc0e,2021-01-04_18h24.47.854,Colour_Similarity_Experiment_v1,2020.1.2,Win32,60,5ff3a352adaa099f7659f8cc,,,,,,,,,,,,,,,,,,,,FF,,,,,,,,7,0.543,,,,,,,,,,,,,,,,,,,,,,,,,,,,2,48,125.5,1,0,0,response1disk,7,140,4,-9.5,1,0,0,rectangle,4,-9.5,1,0,0,3,4,0,0.002,4,-9.5,1,0,0,0,139,139,63,1,,,,,,,,,,,,,,,,,,,,,
,,,,,,,,,,,,,,,,,,,,,,,,,,,,,,,,,,,,,,,,,,,5efa10c6bb1e270bba6fb8d8,5ff3a3b2fd62fb9a4e4efc0e,2021-01-04_18h24.47.854,Colour_Similarity_Experiment_v1,2020.1.2,Win32,60,5ff3a352adaa099f7659f8cc,,,,,,,,,,,,,,,,,,,,FF,,,,,,,,7,1.328,,,,,,,,,,,,,,,,,,,,,,,,,,,,4,74,134.5,1,0,0,response1disk,9,141,2,5.5,1,0,0,rectangle,2,5.5,1,0,0,3,7,0,0.001,2,5.5,1,0,0,0,140,140,90,1,,,,,,,,,,,,,,,,,,,,,
,,,,,,,,,,,,,,,,,,,,,,,,,,,,,,,,,,,,,,,,,,,5efa10c6bb1e270bba6fb8d8,5ff3a3b2fd62fb9a4e4efc0e,2021-01-04_18h24.47.854,Colour_Similarity_Experiment_v1,2020.1.2,Win32,60,5ff3a352adaa099f7659f8cc,,,,,,,,,,,,,,,,,,,,PF,,,,,,,,7,0.667,,,,,,,,,,,,,,,,,,,,,,,,,,,,9,61,138.5,1,0,0,response1disk,2,142,27,9.5,1,0,0,rectangle,27,9.5,1,0,0,3,4,0,0.002,27,9.5,1,0,0,0,141,141,157,1,,,,,,,,,,,,,,,,,,,,,
,,,,,,,,,,,,,,,,,,,,,,,,,,,,,,,,,,,,,,,,,,,5efa10c6bb1e270bba6fb8d8,5ff3a3b2fd62fb9a4e4efc0e,2021-01-04_18h24.47.854,Colour_Similarity_Experiment_v1,2020.1.2,Win32,60,5ff3a352adaa099f7659f8cc,,,,,,,,,,,,,,,,,,,,PF,,,,,,,,7,0.676,,,,,,,,,,,,,,,,,,,,,,,,,,,,5,51,136.5,1,0,0,response1disk,1,143,-4,1.5,1,0,0,rectangle,108,46.5,1,0,0,6,6,1,1.412,7,-14.5,1,0,0,0,142,142,159,1,response1disk_3,rectangle,,,,,,,,,,,,,,,,,,,
,,,,,,,,,,,,,,,,,,,,,,,,,,,,,,,,,,,,,,,,,,,5efa10c6bb1e270bba6fb8d8,5ff3a3b2fd62fb9a4e4efc0e,2021-01-04_18h24.47.854,Colour_Similarity_Experiment_v1,2020.1.2,Win32,60,5ff3a352adaa099f7659f8cc,,,,,,,,,,,,,,,,,,,,PF,,,,,,,,0,0.839,,,,,,,,,,,,,,,,,,,,,,,,,,,,6,-51,123.5,1,0,0,response7disk,6,144,5,4.5,1,0,0,rectangle,5,4.5,1,0,0,6,4,0,0.002,5,4.5,1,0,0,0,143,143,0,1,,,,,,,,,,,,,,,,,,,,,
,,,,,,,,,,,,,,,,,,,,,,,,,,,,,,,,,,,,,,,,,,,5efa10c6bb1e270bba6fb8d8,5ff3a3b2fd62fb9a4e4efc0e,2021-01-04_18h24.47.854,Colour_Similarity_Experiment_v1,2020.1.2,Win32,60,5ff3a352adaa099f7659f8cc,,,,,,,,,,,,,,,,,,,,FF,,,,,,,,0,0.537,,,,,,,,,,,,,,,,,,,,,,,,,,,,1,-27,123.5,1,0,0,response7disk,1,145,-9,8.5,1,0,0,rectangle,-9,8.5,1,0,0,6,6,0,0,-9,8.5,1,0,0,0,144,144,151,1,,,,,,,,,,,,,,,,,,,,,
,,,,,,,,,,,,,,,,,,,,,,,,,,,,,,,,,,,,,,,,,,,5efa10c6bb1e270bba6fb8d8,5ff3a3b2fd62fb9a4e4efc0e,2021-01-04_18h24.47.854,Colour_Similarity_Experiment_v1,2020.1.2,Win32,60,5ff3a352adaa099f7659f8cc,,,,,,,,,,,,,,,,,,,,FF,,,,,,,,7,0.627,,,,,,,,,,,,,,,,,,,,,,,,,,,,7,55,134.5,1,0,0,response1disk,9,146,8,9.5,1,0,0,rectangle,8,9.5,1,0,0,6,3,0,0.001,8,9.5,1,0,0,0,145,145,155,1,,,,,,,,,,,,,,,,,,,,,
,,,,,,,,,,,,,,,,,,,,,,,,,,,,,,,,,,,,,,,,,,,5efa10c6bb1e270bba6fb8d8,5ff3a3b2fd62fb9a4e4efc0e,2021-01-04_18h24.47.854,Colour_Similarity_Experiment_v1,2020.1.2,Win32,60,5ff3a352adaa099f7659f8cc,,,,,,,,,,,,,,,,,,,,FF,,,,,,,,7,0.666,,,,,,,,,,,,,,,,,,,,,,,,,,,,5,56,121.5,1,0,0,response1disk,1,147,-6,15.5,1,0,0,rectangle,-6,15.5,1,0,0,6,0,0,0.002,-6,15.5,1,0,0,0,146,146,131,1,,,,,,,,,,,,,,,,,,,,,
,,,,,,,,,,,,,,,,,,,,,,,,,,,,,,,,,,,,,,,,,,,5efa10c6bb1e270bba6fb8d8,5ff3a3b2fd62fb9a4e4efc0e,2021-01-04_18h24.47.854,Colour_Similarity_Experiment_v1,2020.1.2,Win32,60,5ff3a352adaa099f7659f8cc,,,,,,,,,,,,,,,,,,,,PF,,,,,,,,7,0.728,,,,,,,,,,,,,,,,,,,,,,,,,,,,1,54,149.5,1,0,0,response1disk,5,148,19,16.5,1,0,0,rectangle,19,16.5,1,0,0,6,3,0,0.002,19,16.5,1,0,0,0,147,147,28,1,,,,,,,,,,,,,,,,,,,,,
,,,,,,,,,,,,,,,,,,,,,,,,,,,,,,,,,,,,,,,,,,,5efa10c6bb1e270bba6fb8d8,5ff3a3b2fd62fb9a4e4efc0e,2021-01-04_18h24.47.854,Colour_Similarity_Experiment_v1,2020.1.2,Win32,60,5ff3a352adaa099f7659f8cc,,,,,,,,,,,,,,,,,,,,PF,,,,,,,,0,0.749,,,,,,,,,,,,,,,,,,,,,,,,,,,,8,-55,143.5,1,0,0,response7disk,8,149,-1,7.5,1,0,0,rectangle,-1,7.5,1,0,0,6,6,0,0.027,-1,7.5,1,0,0,0,148,148,153,1,,,,,,,,,,,,,,,,,,,,,
,,,,,,,,,,,,,,,,,,,,,,,,,,,,,,,,,,,,,,,,,,,5efa10c6bb1e270bba6fb8d8,5ff3a3b2fd62fb9a4e4efc0e,2021-01-04_18h24.47.854,Colour_Similarity_Experiment_v1,2020.1.2,Win32,60,5ff3a352adaa099f7659f8cc,,,,,,,,,,,,,,,,,,,,PF,,,,,,,,7,0.761,,,,,,,,,,,,,,,,,,,,,,,,,,,,1,50,124.5,1,0,0,response1disk,7,150,-12,-2.5,1,0,0,rectangle,-12,-2.5,1,0,0,6,7,0,0.001,-12,-2.5,1,0,0,0,149,149,150,1,,,,,,,,,,,,,,,,,,,,,
,,,,,,,,,,,,,,,,,,,,,,,,,,,,,,,,,,,,,,,,,,,5efa10c6bb1e270bba6fb8d8,5ff3a3b2fd62fb9a4e4efc0e,2021-01-04_18h24.47.854,Colour_Similarity_Experiment_v1,2020.1.2,Win32,60,5ff3a352adaa099f7659f8cc,,,,,,,,,,,,,,,,,,,,FF,,,,,,,,7,0.684,,,,,,,,,,,,,,,,,,,,,,,,,,,,1,31,117.5,1,0,0,response1disk,3,151,-6,-11.5,1,0,0,rectangle,-6,-11.5,1,0,0,6,6,0,0.002,-6,-11.5,1,0,0,0,150,150,99,1,,,,,,,,,,,,,,,,,,,,,
,,,,,,,,,,,,,,,,,,,,,,,,,,,,,,,,,,,,,,,,,,,5efa10c6bb1e270bba6fb8d8,5ff3a3b2fd62fb9a4e4efc0e,2021-01-04_18h24.47.854,Colour_Similarity_Experiment_v1,2020.1.2,Win32,60,5ff3a352adaa099f7659f8cc,,,,,,,,,,,,,,,,,,,,PF,,,,,,,,5,1.614,,,,,,,,,,,,,,,,,,,,,,,,,,,,4,124,-45.5,1,0,0,response3disk,6,152,-6,-0.5,1,0,0,rectangle,-6,-0.5,1,0,0,6,4,0,0.001,-6,-0.5,1,0,0,0,151,151,120,1,,,,,,,,,,,,,,,,,,,,,
,,,,,,,,,,,,,,,,,,,,,,,,,,,,,,,,,,,,,,,,,,,5efa10c6bb1e270bba6fb8d8,5ff3a3b2fd62fb9a4e4efc0e,2021-01-04_18h24.47.854,Colour_Similarity_Experiment_v1,2020.1.2,Win32,60,5ff3a352adaa099f7659f8cc,,,,,,,,,,,,,,,,,,,,PF,,,,,,,,3,0.989,,,,,,,,,,,,,,,,,,,,,,,,,,,,7,-50,-95.5,1,0,0,response5disk,3,153,8,4.5,1,0,0,rectangle,8,4.5,1,0,0,6,4,0,0.001,8,4.5,1,0,0,0,152,152,81,1,,,,,,,,,,,,,,,,,,,,,
,,,,,,,,,,,,,,,,,,,,,,,,,,,,,,,,,,,,,,,,,,,5efa10c6bb1e270bba6fb8d8,5ff3a3b2fd62fb9a4e4efc0e,2021-01-04_18h24.47.854,Colour_Similarity_Experiment_v1,2020.1.2,Win32,60,5ff3a352adaa099f7659f8cc,,,,,,,,,,,,,,,,,,,,FF,,,,,,,,7,1.001,,,,,,,,,,,,,,,,,,,,,,,,,,,,4,83,113.5,1,0,0,response1disk,2,154,1,-2.5,1,0,0,rectangle,1,-2.5,1,0,0,6,1,0,0.006,1,-2.5,1,0,0,0,153,153,13,1,,,,,,,,,,,,,,,,,,,,,
,,,,,,,,,,,,,,,,,,,,,,,,,,,,,,,,,,,,,,,,,,,5efa10c6bb1e270bba6fb8d8,5ff3a3b2fd62fb9a4e4efc0e,2021-01-04_18h24.47.854,Colour_Similarity_Experiment_v1,2020.1.2,Win32,60,5ff3a352adaa099f7659f8cc,,,,,,,,,,,,,,,,,,,,PF,,,,,,,,1,1.183,,,,,,,,,,,,,,,,,,,,,,,,,,,,5,-134,52.5,1,0,0,response7disk,3,155,-25,10.5,1,0,0,rectangle,-25,10.5,1,0,0,6,1,0,0.002,-25,10.5,1,0,0,0,154,154,109,1,,,,,,,,,,,,,,,,,,,,,
,,,,,,,,,,,,,,,,,,,,,,,,,,,,,,,,,,,,,,,,,,,5efa10c6bb1e270bba6fb8d8,5ff3a3b2fd62fb9a4e4efc0e,2021-01-04_18h24.47.854,Colour_Similarity_Experiment_v1,2020.1.2,Win32,60,5ff3a352adaa099f7659f8cc,,,,,,,,,,,,,,,,,,,,FF,,,,,,,,7,0.651,,,,,,,,,,,,,,,,,,,,,,,,,,,,4,55,124.5,1,0,0,response1disk,7,156,-8,-3.5,1,0,0,rectangle,-8,-3.5,1,0,0,6,0,0,0.001,-8,-3.5,1,0,0,0,155,155,87,1,,,,,,,,,,,,,,,,,,,,,
,,,,,,,,,,,,,,,,,,,,,,,,,,,,,,,,,,,,,,,,,,,5efa10c6bb1e270bba6fb8d8,5ff3a3b2fd62fb9a4e4efc0e,2021-01-04_18h24.47.854,Colour_Similarity_Experiment_v1,2020.1.2,Win32,60,5ff3a352adaa099f7659f8cc,,,,,,,,,,,,,,,,,,,,FF,,,,,,,,7,0.553,,,,,,,,,,,,,,,,,,,,,,,,,,,,9,57,121.5,1,0,0,response1disk,3,157,-8,-15.5,1,0,0,rectangle,-8,-15.5,1,0,0,6,1,0,0.001,-8,-15.5,1,0,0,0,156,156,141,1,,,,,,,,,,,,,,,,,,,,,
,,,,,,,,,,,,,,,,,,,,,,,,,,,,,,,,,,,,,,,,,,,5efa10c6bb1e270bba6fb8d8,5ff3a3b2fd62fb9a4e4efc0e,2021-01-04_18h24.47.854,Colour_Similarity_Experiment_v1,2020.1.2,Win32,60,5ff3a352adaa099f7659f8cc,,,,,,,,,,,,,,,,,,,,FF,,,,,,,,0,0.803,,,,,,,,,,,,,,,,,,,,,,,,,,,,2,-45,123.5,1,0,0,response7disk,2,158,-7,-14.5,1,0,0,rectangle,-7,-14.5,1,0,0,6,3,0,0.001,-7,-14.5,1,0,0,0,157,157,142,1,,,,,,,,,,,,,,,,,,,,,
,,,,,,,,,,,,,,,,,,,,,,,,,,,,,,,,,,,,,,,,,,,5efa10c6bb1e270bba6fb8d8,5ff3a3b2fd62fb9a4e4efc0e,2021-01-04_18h24.47.854,Colour_Similarity_Experiment_v1,2020.1.2,Win32,60,5ff3a352adaa099f7659f8cc,,,,,,,,,,,,,,,,,,,,FF,,,,,,,,7,1.125,,,,,,,,,,,,,,,,,,,,,,,,,,,,8,72,144.5,1,0,0,response1disk,1,159,5,-2.5,1,0,0,rectangle,5,-2.5,1,0,0,6,5,0,0.001,5,-2.5,1,0,0,0,158,158,20,1,,,,,,,,,,,,,,,,,,,,,
,,,,,,,,,,,,,,,,,,,,,,,,,,,,,,,,,,,,,,,,,,,5efa10c6bb1e270bba6fb8d8,5ff3a3b2fd62fb9a4e4efc0e,2021-01-04_18h24.47.854,Colour_Similarity_Experiment_v1,2020.1.2,Win32,60,5ff3a352adaa099f7659f8cc,,,,,,,,,,,,,,,,,,,,FF,,,,,,,,0,0.809,,,,,,,,,,,,,,,,,,,,,,,,,,,,5,-67,148.5,1,0,0,response7disk,5,160,-10,10.5,1,0,0,rectangle,-10,10.5,1,0,0,6,6,0,0.002,-10,10.5,1,0,0,0,159,159,19,1,,,,,,,,,,,,,,,,,,,,,
,,,,,,,,,,,,,,,,,,,,,,,,,,,,,,,,,,,,,,,,,,,5efa10c6bb1e270bba6fb8d8,5ff3a3b2fd62fb9a4e4efc0e,2021-01-04_18h24.47.854,Colour_Similarity_Experiment_v1,2020.1.2,Win32,60,5ff3a352adaa099f7659f8cc,,,,,,,,,,,,,,,,,,,,PF,,,,,,,,7,1.877,,,,,,,,,,,,,,,,,,,,,,,,,,,,8,69,120.5,1,0,0,response1disk,3,161,7,4.5,1,0,0,rectangle,7,4.5,1,0,0,6,3,0,0,7,4.5,1,0,0,0,160,160,71,1,,,,,,,,,,,,,,,,,,,,,
,,,,,,,,,,,,,,,,,,,,,,,,,,,,,,,,,,,,,,,,,,,5efa10c6bb1e270bba6fb8d8,5ff3a3b2fd62fb9a4e4efc0e,2021-01-04_18h24.47.854,Colour_Similarity_Experiment_v1,2020.1.2,Win32,60,5ff3a352adaa099f7659f8cc,,,,,,,,,,,,,,,,,,,,PF,,,,,,,,7,0.781,,,,,,,,,,,,,,,,,,,,,,,,,,,,7,54,110.5,1,0,0,response1disk,2,162,7,-5.5,1,0,0,rectangle,7,-5.5,1,0,0,6,6,0,0.001,7,-5.5,1,0,0,0,161,161,32,1,,,,,,,,,,,,,,,,,,,,,
,,,,,,,,,,,,,,,,,,,,,,,,,,,,,,,,,,,,,,,,,,,5efa10c6bb1e270bba6fb8d8,5ff3a3b2fd62fb9a4e4efc0e,2021-01-04_18h24.47.854,Colour_Similarity_Experiment_v1,2020.1.2,Win32,60,5ff3a352adaa099f7659f8cc,,,,,,,,,,,,,,,,,,,,,,,,,,,,,,,,,,,,,,,,,,,,,,,,,,,,,,,,,,,,,,,,,,,,,,,,,,,,,,,,,,,,,,,,,,,,,0,0,0,0,1,,,,,,,,,,,,,,
,,,,,,,,,,,,,,,,,,,,,,,,,,,,,,,,,,,,,,,,,,,5efa10c6bb1e270bba6fb8d8,5ff3a3b2fd62fb9a4e4efc0e,2021-01-04_18h24.47.854,Colour_Similarity_Experiment_v1,2020.1.2,Win32,60,5ff3a352adaa099f7659f8cc,,,,,,,,,,,,,,,,,,,,FF,,,,,,,,6,1.117,,,,,,,,,,,,,,,,,,,,,,,,,,,,8,109,57.5,1,0,0,response1disk,4,163,10,5.5,1,0,0,rectangle,10,5.5,1,0,0,6,4,0,0.001,10,5.5,1,0,0,0,0,0,88,1,,,,,,,,,,,,,,,,,,,,,
,,,,,,,,,,,,,,,,,,,,,,,,,,,,,,,,,,,,,,,,,,,5efa10c6bb1e270bba6fb8d8,5ff3a3b2fd62fb9a4e4efc0e,2021-01-04_18h24.47.854,Colour_Similarity_Experiment_v1,2020.1.2,Win32,60,5ff3a352adaa099f7659f8cc,,,,,,,,,,,,,,,,,,,,FF,,,,,,,,6,0.836,,,,,,,,,,,,,,,,,,,,,,,,,,,,4,148,61.5,1,0,0,response1disk,8,164,13,12.5,1,0,0,rectangle,13,12.5,1,0,0,6,0,0,0.002,13,12.5,1,0,0,0,1,1,35,1,,,,,,,,,,,,,,,,,,,,,
,,,,,,,,,,,,,,,,,,,,,,,,,,,,,,,,,,,,,,,,,,,5efa10c6bb1e270bba6fb8d8,5ff3a3b2fd62fb9a4e4efc0e,2021-01-04_18h24.47.854,Colour_Similarity_Experiment_v1,2020.1.2,Win32,60,5ff3a352adaa099f7659f8cc,,,,,,,,,,,,,,,,,,,,PF,,,,,,,,6,1.255,,,,,,,,,,,,,,,,,,,,,,,,,,,,8,140,42.5,1,0,0,response1disk,4,165,2,6.5,1,0,0,rectangle,2,6.5,1,0,0,6,2,0,0.001,2,6.5,1,0,0,0,2,2,78,1,,,,,,,,,,,,,,,,,,,,,
,,,,,,,,,,,,,,,,,,,,,,,,,,,,,,,,,,,,,,,,,,,5efa10c6bb1e270bba6fb8d8,5ff3a3b2fd62fb9a4e4efc0e,2021-01-04_18h24.47.854,Colour_Similarity_Experiment_v1,2020.1.2,Win32,60,5ff3a352adaa099f7659f8cc,,,,,,,,,,,,,,,,,,,,PF,,,,,,,,1,1.233,,,,,,,,,,,,,,,,,,,,,,,,,,,,6,-125,54.5,1,0,0,response7disk,7,166,1,10.5,1,0,0,rectangle,1,10.5,1,0,0,6,2,0,0.001,1,10.5,1,0,0,0,3,3,50,1,,,,,,,,,,,,,,,,,,,,,
,,,,,,,,,,,,,,,,,,,,,,,,,,,,,,,,,,,,,,,,,,,5efa10c6bb1e270bba6fb8d8,5ff3a3b2fd62fb9a4e4efc0e,2021-01-04_18h24.47.854,Colour_Similarity_Experiment_v1,2020.1.2,Win32,60,5ff3a352adaa099f7659f8cc,,,,,,,,,,,,,,,,,,,,PF,,,,,,,,7,0.64,,,,,,,,,,,,,,,,,,,,,,,,,,,,2,74,132.5,1,0,0,response1disk,8,167,13,0.5,1,0,0,rectangle,13,0.5,1,0,0,6,4,0,0.001,13,0.5,1,0,0,0,4,4,52,1,,,,,,,,,,,,,,,,,,,,,
,,,,,,,,,,,,,,,,,,,,,,,,,,,,,,,,,,,,,,,,,,,5efa10c6bb1e270bba6fb8d8,5ff3a3b2fd62fb9a4e4efc0e,2021-01-04_18h24.47.854,Colour_Similarity_Experiment_v1,2020.1.2,Win32,60,5ff3a352adaa099f7659f8cc,,,,,,,,,,,,,,,,,,,,FF,,,,,,,,7,0.835,,,,,,,,,,,,,,,,,,,,,,,,,,,,2,46,127.5,1,0,0,response1disk,4,168,5,-10.5,1,0,0,rectangle,5,-10.5,1,0,0,6,6,0,0.001,5,-10.5,1,0,0,0,5,5,145,1,,,,,,,,,,,,,,,,,,,,,
,,,,,,,,,,,,,,,,,,,,,,,,,,,,,,,,,,,,,,,,,,,5efa10c6bb1e270bba6fb8d8,5ff3a3b2fd62fb9a4e4efc0e,2021-01-04_18h24.47.854,Colour_Similarity_Experiment_v1,2020.1.2,Win32,60,5ff3a352adaa099f7659f8cc,,,,,,,,,,,,,,,,,,,,PF,,,,,,,,7,0.566,,,,,,,,,,,,,,,,,,,,,,,,,,,,1,71,123.5,1,0,0,response1disk,5,169,-11,-18.5,1,0,0,rectangle,-11,-18.5,1,0,0,6,6,0,0.001,-11,-18.5,1,0,0,0,6,6,28,1,,,,,,,,,,,,,,,,,,,,,
,,,,,,,,,,,,,,,,,,,,,,,,,,,,,,,,,,,,,,,,,,,5efa10c6bb1e270bba6fb8d8,5ff3a3b2fd62fb9a4e4efc0e,2021-01-04_18h24.47.854,Colour_Similarity_Experiment_v1,2020.1.2,Win32,60,5ff3a352adaa099f7659f8cc,,,,,,,,,,,,,,,,,,,,PF,,,,,,,,7,0.735,,,,,,,,,,,,,,,,,,,,,,,,,,,,5,59,150.5,1,0,0,response1disk,1,170,-10,0.5,1,0,0,rectangle,-37,122.5,1,0,0,0,0,1,1.337,-10,-4.5,1,0,0,0,7,7,159,1,response7disk_3,rectangle,,,,,,,,,,,,,,,,,,,
,,,,,,,,,,,,,,,,,,,,,,,,,,,,,,,,,,,,,,,,,,,5efa10c6bb1e270bba6fb8d8,5ff3a3b2fd62fb9a4e4efc0e,2021-01-04_18h24.47.854,Colour_Similarity_Experiment_v1,2020.1.2,Win32,60,5ff3a352adaa099f7659f8cc,,,,,,,,,,,,,,,,,,,,FF,,,,,,,,0,1.094,,,,,,,,,,,,,,,,,,,,,,,,,,,,8,-47,119.5,1,0,0,response7disk,8,171,-3,3.5,1,0,0,rectangle,-3,3.5,1,0,0,0,5,0,0.002,-3,3.5,1,0,0,0,8,8,48,1,,,,,,,,,,,,,,,,,,,,,
,,,,,,,,,,,,,,,,,,,,,,,,,,,,,,,,,,,,,,,,,,,5efa10c6bb1e270bba6fb8d8,5ff3a3b2fd62fb9a4e4efc0e,2021-01-04_18h24.47.854,Colour_Similarity_Experiment_v1,2020.1.2,Win32,60,5ff3a352adaa099f7659f8cc,,,,,,,,,,,,,,,,,,,,FF,,,,,,,,7,0.557,,,,,,,,,,,,,,,,,,,,,,,,,,,,8,51,129.5,1,0,0,response1disk,5,172,-2,7.5,1,0,0,rectangle,-2,7.5,1,0,0,0,4,0,0,-2,7.5,1,0,0,0,9,9,152,1,,,,,,,,,,,,,,,,,,,,,
,,,,,,,,,,,,,,,,,,,,,,,,,,,,,,,,,,,,,,,,,,,5efa10c6bb1e270bba6fb8d8,5ff3a3b2fd62fb9a4e4efc0e,2021-01-04_18h24.47.854,Colour_Similarity_Experiment_v1,2020.1.2,Win32,60,5ff3a352adaa099f7659f8cc,,,,,,,,,,,,,,,,,,,,PF,,,,,,,,1,1.081,,,,,,,,,,,,,,,,,,,,,,,,,,,,7,-91,40.5,1,0,0,response7disk,5,173,7,1.5,1,0,0,rectangle,7,1.5,1,0,0,0,2,0,0.001,7,1.5,1,0,0,0,10,10,92,1,,,,,,,,,,,,,,,,,,,,,
,,,,,,,,,,,,,,,,,,,,,,,,,,,,,,,,,,,,,,,,,,,5efa10c6bb1e270bba6fb8d8,5ff3a3b2fd62fb9a4e4efc0e,2021-01-04_18h24.47.854,Colour_Similarity_Experiment_v1,2020.1.2,Win32,60,5ff3a352adaa099f7659f8cc,,,,,,,,,,,,,,,,,,,,FF,,,,,,,,7,0.601,,,,,,,,,,,,,,,,,,,,,,,,,,,,3,57,132.5,1,0,0,response1disk,2,174,4,18.5,1,0,0,rectangle,4,18.5,1,0,0,0,5,0,0,4,18.5,1,0,0,0,11,11,93,1,,,,,,,,,,,,,,,,,,,,,
,,,,,,,,,,,,,,,,,,,,,,,,,,,,,,,,,,,,,,,,,,,5efa10c6bb1e270bba6fb8d8,5ff3a3b2fd62fb9a4e4efc0e,2021-01-04_18h24.47.854,Colour_Similarity_Experiment_v1,2020.1.2,Win32,60,5ff3a352adaa099f7659f8cc,,,,,,,,,,,,,,,,,,,,PF,,,,,,,,1,1.588,,,,,,,,,,,,,,,,,,,,,,,,,,,,1,-116,59.5,1,0,0,response7disk,9,175,-19,13.5,1,0,0,rectangle,-19,13.5,1,0,0,0,0,0,0.006,-19,13.5,1,0,0,0,12,12,15,1,,,,,,,,,,,,,,,,,,,,,
,,,,,,,,,,,,,,,,,,,,,,,,,,,,,,,,,,,,,,,,,,,5efa10c6bb1e270bba6fb8d8,5ff3a3b2fd62fb9a4e4efc0e,2021-01-04_18h24.47.854,Colour_Similarity_Experiment_v1,2020.1.2,Win32,60,5ff3a352adaa099f7659f8cc,,,,,,,,,,,,,,,,,,,,PF,,,,,,,,2,1.138,,,,,,,,,,,,,,,,,,,,,,,,,,,,9,-116,-55.5,1,0,0,response5disk,5,176,4,-17.5,1,0,0,rectangle,4,-17.5,1,0,0,0,5,0,0.002,4,-17.5,1,0,0,0,13,13,134,1,,,,,,,,,,,,,,,,,,,,,
,,,,,,,,,,,,,,,,,,,,,,,,,,,,,,,,,,,,,,,,,,,5efa10c6bb1e270bba6fb8d8,5ff3a3b2fd62fb9a4e4efc0e,2021-01-04_18h24.47.854,Colour_Similarity_Experiment_v1,2020.1.2,Win32,60,5ff3a352adaa099f7659f8cc,,,,,,,,,,,,,,,,,,,,FF,,,,,,,,7,0.918,,,,,,,,,,,,,,,,,,,,,,,,,,,,4,49,110.5,1,0,0,response1disk,1,177,-4,-2.5,1,0,0,rectangle,-4,-2.5,1,0,0,0,2,0,0,-4,-2.5,1,0,0,0,14,14,102,1,,,,,,,,,,,,,,,,,,,,,
,,,,,,,,,,,,,,,,,,,,,,,,,,,,,,,,,,,,,,,,,,,5efa10c6bb1e270bba6fb8d8,5ff3a3b2fd62fb9a4e4efc0e,2021-01-04_18h24.47.854,Colour_Similarity_Experiment_v1,2020.1.2,Win32,60,5ff3a352adaa099f7659f8cc,,,,,,,,,,,,,,,,,,,,PF,,,,,,,,7,0.653,,,,,,,,,,,,,,,,,,,,,,,,,,,,2,76,131.5,1,0,0,response1disk,6,178,-2,1.5,1,0,0,rectangle,-2,1.5,1,0,0,0,6,0,0.001,-2,1.5,1,0,0,0,15,15,113,1,,,,,,,,,,,,,,,,,,,,,
,,,,,,,,,,,,,,,,,,,,,,,,,,,,,,,,,,,,,,,,,,,5efa10c6bb1e270bba6fb8d8,5ff3a3b2fd62fb9a4e4efc0e,2021-01-04_18h24.47.854,Colour_Similarity_Experiment_v1,2020.1.2,Win32,60,5ff3a352adaa099f7659f8cc,,,,,,,,,,,,,,,,,,,,FF,,,,,,,,1,1.225,,,,,,,,,,,,,,,,,,,,,,,,,,,,4,-131,49.5,1,0,0,response7disk,6,179,-15,8.5,1,0,0,rectangle,-15,8.5,1,0,0,0,3,0,0.007,-15,8.5,1,0,0,0,16,16,122,1,,,,,,,,,,,,,,,,,,,,,
,,,,,,,,,,,,,,,,,,,,,,,,,,,,,,,,,,,,,,,,,,,5efa10c6bb1e270bba6fb8d8,5ff3a3b2fd62fb9a4e4efc0e,2021-01-04_18h24.47.854,Colour_Similarity_Experiment_v1,2020.1.2,Win32,60,5ff3a352adaa099f7659f8cc,,,,,,,,,,,,,,,,,,,,PF,,,,,,,,6,0.679,,,,,,,,,,,,,,,,,,,,,,,,,,,,8,142,60.5,1,0,0,response1disk,1,180,1,4.5,1,0,0,rectangle,1,4.5,1,0,0,0,1,0,0.003,1,4.5,1,0,0,0,17,17,57,1,,,,,,,,,,,,,,,,,,,,,
,,,,,,,,,,,,,,,,,,,,,,,,,,,,,,,,,,,,,,,,,,,5efa10c6bb1e270bba6fb8d8,5ff3a3b2fd62fb9a4e4efc0e,2021-01-04_18h24.47.854,Colour_Similarity_Experiment_v1,2020.1.2,Win32,60,5ff3a352adaa099f7659f8cc,,,,,,,,,,,,,,,,,,,,PF,,,,,,,,2,1.337,,,,,,,,,,,,,,,,,,,,,,,,,,,,5,-123,-49.5,1,0,0,response5disk,6,181,16,-6.5,1,0,0,rectangle,16,-6.5,1,0,0,0,0,0,0.004,16,-6.5,1,0,0,0,18,18,103,1,,,,,,,,,,,,,,,,,,,,,
,,,,,,,,,,,,,,,,,,,,,,,,,,,,,,,,,,,,,,,,,,,5efa10c6bb1e270bba6fb8d8,5ff3a3b2fd62fb9a4e4efc0e,2021-01-04_18h24.47.854,Colour_Similarity_Experiment_v1,2020.1.2,Win32,60,5ff3a352adaa099f7659f8cc,,,,,,,,,,,,,,,,,,,,FF,,,,,,,,7,1.18,,,,,,,,,,,,,,,,,,,,,,,,,,,,4,49,138.5,1,0,0,response1disk,9,182,12,3.5,1,0,0,rectangle,12,3.5,1,0,0,0,3,0,0.001,12,3.5,1,0,0,0,19,19,90,1,,,,,,,,,,,,,,,,,,,,,
,,,,,,,,,,,,,,,,,,,,,,,,,,,,,,,,,,,,,,,,,,,5efa10c6bb1e270bba6fb8d8,5ff3a3b2fd62fb9a4e4efc0e,2021-01-04_18h24.47.854,Colour_Similarity_Experiment_v1,2020.1.2,Win32,60,5ff3a352adaa099f7659f8cc,,,,,,,,,,,,,,,,,,,,FF,,,,,,,,0,1.02,,,,,,,,,,,,,,,,,,,,,,,,,,,,9,-26,148.5,1,0,0,response7disk,9,183,16,-1.5,1,0,0,rectangle,16,-1.5,1,0,0,0,0,0,0.001,16,-1.5,1,0,0,0,20,20,17,1,,,,,,,,,,,,,,,,,,,,,
,,,,,,,,,,,,,,,,,,,,,,,,,,,,,,,,,,,,,,,,,,,5efa10c6bb1e270bba6fb8d8,5ff3a3b2fd62fb9a4e4efc0e,2021-01-04_18h24.47.854,Colour_Similarity_Experiment_v1,2020.1.2,Win32,60,5ff3a352adaa099f7659f8cc,,,,,,,,,,,,,,,,,,,,FF,,,,,,,,0,1.35,,,,,,,,,,,,,,,,,,,,,,,,,,,,1,-34,138.5,1,0,0,response7disk,9,184,36,-9.5,1,0,0,rectangle,36,-9.5,1,0,0,0,0,0,0,36,-9.5,1,0,0,0,21,21,123,1,,,,,,,,,,,,,,,,,,,,,
,,,,,,,,,,,,,,,,,,,,,,,,,,,,,,,,,,,,,,,,,,,5efa10c6bb1e270bba6fb8d8,5ff3a3b2fd62fb9a4e4efc0e,2021-01-04_18h24.47.854,Colour_Similarity_Experiment_v1,2020.1.2,Win32,60,5ff3a352adaa099f7659f8cc,,,,,,,,,,,,,,,,,,,,FF,,,,,,,,7,0.816,,,,,,,,,,,,,,,,,,,,,,,,,,,,9,61,133.5,1,0,0,response1disk,7,185,15,-2.5,1,0,0,rectangle,15,-2.5,1,0,0,0,0,0,0,15,-2.5,1,0,0,0,22,22,100,1,,,,,,,,,,,,,,,,,,,,,
,,,,,,,,,,,,,,,,,,,,,,,,,,,,,,,,,,,,,,,,,,,5efa10c6bb1e270bba6fb8d8,5ff3a3b2fd62fb9a4e4efc0e,2021-01-04_18h24.47.854,Colour_Similarity_Experiment_v1,2020.1.2,Win32,60,5ff3a352adaa099f7659f8cc,,,,,,,,,,,,,,,,,,,,PF,,,,,,,,7,0.951,,,,,,,,,,,,,,,,,,,,,,,,,,,,8,68,145.5,1,0,0,response1disk,3,186,18,13.5,1,0,0,rectangle,18,13.5,1,0,0,0,7,0,0.002,18,13.5,1,0,0,0,23,23,71,1,,,,,,,,,,,,,,,,,,,,,
,,,,,,,,,,,,,,,,,,,,,,,,,,,,,,,,,,,,,,,,,,,5efa10c6bb1e270bba6fb8d8,5ff3a3b2fd62fb9a4e4efc0e,2021-01-04_18h24.47.854,Colour_Similarity_Experiment_v1,2020.1.2,Win32,60,5ff3a352adaa099f7659f8cc,,,,,,,,,,,,,,,,,,,,FF,,,,,,,,7,0.723,,,,,,,,,,,,,,,,,,,,,,,,,,,,9,50,133.5,1,0,0,response1disk,6,187,19,13.5,1,0,0,rectangle,19,13.5,1,0,0,0,7,0,0.001,19,13.5,1,0,0,0,24,24,117,1,,,,,,,,,,,,,,,,,,,,,
,,,,,,,,,,,,,,,,,,,,,,,,,,,,,,,,,,,,,,,,,,,5efa10c6bb1e270bba6fb8d8,5ff3a3b2fd62fb9a4e4efc0e,2021-01-04_18h24.47.854,Colour_Similarity_Experiment_v1,2020.1.2,Win32,60,5ff3a352adaa099f7659f8cc,,,,,,,,,,,,,,,,,,,,PF,,,,,,,,7,0.717,,,,,,,,,,,,,,,,,,,,,,,,,,,,3,69,145.5,1,0,0,response1disk,8,188,12,-4.5,1,0,0,rectangle,12,-4.5,1,0,0,0,1,0,0,12,-4.5,1,0,0,0,25,25,3,1,,,,,,,,,,,,,,,,,,,,,
,,,,,,,,,,,,,,,,,,,,,,,,,,,,,,,,,,,,,,,,,,,5efa10c6bb1e270bba6fb8d8,5ff3a3b2fd62fb9a4e4efc0e,2021-01-04_18h24.47.854,Colour_Similarity_Experiment_v1,2020.1.2,Win32,60,5ff3a352adaa099f7659f8cc,,,,,,,,,,,,,,,,,,,,PF,,,,,,,,7,0.753,,,,,,,,,,,,,,,,,,,,,,,,,,,,2,65,126.5,1,0,0,response1disk,4,189,20,2.5,1,0,0,rectangle,20,2.5,1,0,0,0,2,0,0.001,20,2.5,1,0,0,0,26,26,127,1,,,,,,,,,,,,,,,,,,,,,
,,,,,,,,,,,,,,,,,,,,,,,,,,,,,,,,,,,,,,,,,,,5efa10c6bb1e270bba6fb8d8,5ff3a3b2fd62fb9a4e4efc0e,2021-01-04_18h24.47.854,Colour_Similarity_Experiment_v1,2020.1.2,Win32,60,5ff3a352adaa099f7659f8cc,,,,,,,,,,,,,,,,,,,,PF,,,,,,,,5,1.272,,,,,,,,,,,,,,,,,,,,,,,,,,,,2,113,-38.5,1,0,0,response3disk,9,190,28,-2.5,1,0,0,rectangle,28,-2.5,1,0,0,0,5,0,0,28,-2.5,1,0,0,0,27,27,39,1,,,,,,,,,,,,,,,,,,,,,
,,,,,,,,,,,,,,,,,,,,,,,,,,,,,,,,,,,,,,,,,,,5efa10c6bb1e270bba6fb8d8,5ff3a3b2fd62fb9a4e4efc0e,2021-01-04_18h24.47.854,Colour_Similarity_Experiment_v1,2020.1.2,Win32,60,5ff3a352adaa099f7659f8cc,,,,,,,,,,,,,,,,,,,,FF,,,,,,,,7,0.666,,,,,,,,,,,,,,,,,,,,,,,,,,,,6,57,111.5,1,0,0,response1disk,9,191,4,-0.5,1,0,0,rectangle,-132,-34.5,1,0,0,0,2,1,1.431,-23,6.5,1,0,0,0,28,28,160,1,response5disk_3,rectangle,,,,,,,,,,,,,,,,,,,
,,,,,,,,,,,,,,,,,,,,,,,,,,,,,,,,,,,,,,,,,,,5efa10c6bb1e270bba6fb8d8,5ff3a3b2fd62fb9a4e4efc0e,2021-01-04_18h24.47.854,Colour_Similarity_Experiment_v1,2020.1.2,Win32,60,5ff3a352adaa099f7659f8cc,,,,,,,,,,,,,,,,,,,,FF,,,,,,,,1,1.236,,,,,,,,,,,,,,,,,,,,,,,,,,,,9,-138,43.5,1,0,0,response7disk,8,192,13,-7.5,1,0,0,rectangle,13,-7.5,1,0,0,0,7,0,0.001,13,-7.5,1,0,0,0,29,29,6,1,,,,,,,,,,,,,,,,,,,,,
,,,,,,,,,,,,,,,,,,,,,,,,,,,,,,,,,,,,,,,,,,,5efa10c6bb1e270bba6fb8d8,5ff3a3b2fd62fb9a4e4efc0e,2021-01-04_18h24.47.854,Colour_Similarity_Experiment_v1,2020.1.2,Win32,60,5ff3a352adaa099f7659f8cc,,,,,,,,,,,,,,,,,,,,FF,,,,,,,,7,0.487,,,,,,,,,,,,,,,,,,,,,,,,,,,,2,46,127.5,1,0,0,response1disk,7,193,-10,-7.5,1,0,0,rectangle,-10,-7.5,1,0,0,0,3,0,0.004,-10,-7.5,1,0,0,0,30,30,63,1,,,,,,,,,,,,,,,,,,,,,
,,,,,,,,,,,,,,,,,,,,,,,,,,,,,,,,,,,,,,,,,,,5efa10c6bb1e270bba6fb8d8,5ff3a3b2fd62fb9a4e4efc0e,2021-01-04_18h24.47.854,Colour_Similarity_Experiment_v1,2020.1.2,Win32,60,5ff3a352adaa099f7659f8cc,,,,,,,,,,,,,,,,,,,,PF,,,,,,,,7,0.636,,,,,,,,,,,,,,,,,,,,,,,,,,,,3,61,117.5,1,0,0,response1disk,9,194,13,16.5,1,0,0,rectangle,13,16.5,1,0,0,0,7,0,0.002,13,16.5,1,0,0,0,31,31,79,1,,,,,,,,,,,,,,,,,,,,,
,,,,,,,,,,,,,,,,,,,,,,,,,,,,,,,,,,,,,,,,,,,5efa10c6bb1e270bba6fb8d8,5ff3a3b2fd62fb9a4e4efc0e,2021-01-04_18h24.47.854,Colour_Similarity_Experiment_v1,2020.1.2,Win32,60,5ff3a352adaa099f7659f8cc,,,,,,,,,,,,,,,,,,,,FF,,,,,,,,2,1.194,,,,,,,,,,,,,,,,,,,,,,,,,,,,2,-110,-52.5,1,0,0,response5disk,3,195,13,9.5,1,0,0,rectangle,109,45.5,1,0,0,6,6,1,1.655,16,1.5,1,0,0,0,32,32,104,1,response1disk_3,rectangle,,,,,,,,,,,,,,,,,,,
,,,,,,,,,,,,,,,,,,,,,,,,,,,,,,,,,,,,,,,,,,,5efa10c6bb1e270bba6fb8d8,5ff3a3b2fd62fb9a4e4efc0e,2021-01-04_18h24.47.854,Colour_Similarity_Experiment_v1,2020.1.2,Win32,60,5ff3a352adaa099f7659f8cc,,,,,,,,,,,,,,,,,,,,FF,,,,,,,,0,4.249,,,,,,,,,,,,,,,,,,,,,,,,,,,,7,-68,135.5,1,0,0,response7disk,2,196,-3,1.5,1,0,0,rectangle,-3,1.5,1,0,0,6,1,0,0.001,-3,1.5,1,0,0,0,33,33,138,1,,,,,,,,,,,,,,,,,,,,,
,,,,,,,,,,,,,,,,,,,,,,,,,,,,,,,,,,,,,,,,,,,5efa10c6bb1e270bba6fb8d8,5ff3a3b2fd62fb9a4e4efc0e,2021-01-04_18h24.47.854,Colour_Similarity_Experiment_v1,2020.1.2,Win32,60,5ff3a352adaa099f7659f8cc,,,,,,,,,,,,,,,,,,,,PF,,,,,,,,7,0.659,,,,,,,,,,,,,,,,,,,,,,,,,,,,7,55,113.5,1,0,0,response1disk,2,197,-3,-0.5,1,0,0,rectangle,-3,-0.5,1,0,0,6,1,0,0.001,-3,-0.5,1,0,0,0,34,34,32,1,,,,,,,,,,,,,,,,,,,,,
,,,,,,,,,,,,,,,,,,,,,,,,,,,,,,,,,,,,,,,,,,,5efa10c6bb1e270bba6fb8d8,5ff3a3b2fd62fb9a4e4efc0e,2021-01-04_18h24.47.854,Colour_Similarity_Experiment_v1,2020.1.2,Win32,60,5ff3a352adaa099f7659f8cc,,,,,,,,,,,,,,,,,,,,FF,,,,,,,,0,0.838,,,,,,,,,,,,,,,,,,,,,,,,,,,,3,-59,130.5,1,0,0,response7disk,3,198,-12,-1.5,1,0,0,rectangle,-12,-1.5,1,0,0,6,4,0,0.001,-12,-1.5,1,0,0,0,35,35,68,1,,,,,,,,,,,,,,,,,,,,,
,,,,,,,,,,,,,,,,,,,,,,,,,,,,,,,,,,,,,,,,,,,5efa10c6bb1e270bba6fb8d8,5ff3a3b2fd62fb9a4e4efc0e,2021-01-04_18h24.47.854,Colour_Similarity_Experiment_v1,2020.1.2,Win32,60,5ff3a352adaa099f7659f8cc,,,,,,,,,,,,,,,,,,,,FF,,,,,,,,2,1.591,,,,,,,,,,,,,,,,,,,,,,,,,,,,2,-111,-46.5,1,0,0,response5disk,1,199,-2,-0.5,1,0,0,rectangle,-2,-0.5,1,0,0,6,2,0,0.001,-2,-0.5,1,0,0,0,36,36,85,1,,,,,,,,,,,,,,,,,,,,,
,,,,,,,,,,,,,,,,,,,,,,,,,,,,,,,,,,,,,,,,,,,5efa10c6bb1e270bba6fb8d8,5ff3a3b2fd62fb9a4e4efc0e,2021-01-04_18h24.47.854,Colour_Similarity_Experiment_v1,2020.1.2,Win32,60,5ff3a352adaa099f7659f8cc,,,,,,,,,,,,,,,,,,,,PF,,,,,,,,7,2.042,,,,,,,,,,,,,,,,,,,,,,,,,,,,4,62,126.5,1,0,0,response1disk,2,200,-1,14.5,1,0,0,rectangle,-1,14.5,1,0,0,6,5,0,0.001,-1,14.5,1,0,0,0,37,37,108,1,,,,,,,,,,,,,,,,,,,,,
,,,,,,,,,,,,,,,,,,,,,,,,,,,,,,,,,,,,,,,,,,,5efa10c6bb1e270bba6fb8d8,5ff3a3b2fd62fb9a4e4efc0e,2021-01-04_18h24.47.854,Colour_Similarity_Experiment_v1,2020.1.2,Win32,60,5ff3a352adaa099f7659f8cc,,,,,,,,,,,,,,,,,,,,PF,,,,,,,,7,0.825,,,,,,,,,,,,,,,,,,,,,,,,,,,,7,65,133.5,1,0,0,response1disk,9,201,1,-9.5,1,0,0,rectangle,1,-9.5,1,0,0,6,3,0,0.002,1,-9.5,1,0,0,0,38,38,10,1,,,,,,,,,,,,,,,,,,,,,
,,,,,,,,,,,,,,,,,,,,,,,,,,,,,,,,,,,,,,,,,,,5efa10c6bb1e270bba6fb8d8,5ff3a3b2fd62fb9a4e4efc0e,2021-01-04_18h24.47.854,Colour_Similarity_Experiment_v1,2020.1.2,Win32,60,5ff3a352adaa099f7659f8cc,,,,,,,,,,,,,,,,,,,,FF,,,,,,,,0,0.727,,,,,,,,,,,,,,,,,,,,,,,,,,,,1,-46,144.5,1,0,0,response7disk,1,202,-1,-11.5,1,0,0,rectangle,-1,-11.5,1,0,0,6,5,0,0.001,-1,-11.5,1,0,0,0,39,39,151,1,,,,,,,,,,,,,,,,,,,,,
,,,,,,,,,,,,,,,,,,,,,,,,,,,,,,,,,,,,,,,,,,,5efa10c6bb1e270bba6fb8d8,5ff3a3b2fd62fb9a4e4efc0e,2021-01-04_18h24.47.854,Colour_Similarity_Experiment_v1,2020.1.2,Win32,60,5ff3a352adaa099f7659f8cc,,,,,,,,,,,,,,,,,,,,FF,,,,,,,,7,0.812,,,,,,,,,,,,,,,,,,,,,,,,,,,,5,45,106.5,1,0,0,response1disk,1,203,-9,-16.5,1,0,0,rectangle,-9,-16.5,1,0,0,6,0,0,0.016,-9,-16.5,1,0,0,0,40,40,131,1,,,,,,,,,,,,,,,,,,,,,
,,,,,,,,,,,,,,,,,,,,,,,,,,,,,,,,,,,,,,,,,,,5efa10c6bb1e270bba6fb8d8,5ff3a3b2fd62fb9a4e4efc0e,2021-01-04_18h24.47.854,Colour_Similarity_Experiment_v1,2020.1.2,Win32,60,5ff3a352adaa099f7659f8cc,,,,,,,,,,,,,,,,,,,,PF,,,,,,,,6,1.889,,,,,,,,,,,,,,,,,,,,,,,,,,,,5,94,55.5,1,0,0,response1disk,9,204,9,-9.5,1,0,0,rectangle,42,113.5,1,0,0,7,7,1,1.769,-15,8.5,1,0,0,0,41,41,136,1,response1disk_3,rectangle,,,,,,,,,,,,,,,,,,,
,,,,,,,,,,,,,,,,,,,,,,,,,,,,,,,,,,,,,,,,,,,5efa10c6bb1e270bba6fb8d8,5ff3a3b2fd62fb9a4e4efc0e,2021-01-04_18h24.47.854,Colour_Similarity_Experiment_v1,2020.1.2,Win32,60,5ff3a352adaa099f7659f8cc,,,,,,,,,,,,,,,,,,,,PF,,,,,,,,2,1.153,,,,,,,,,,,,,,,,,,,,,,,,,,,,3,-91,-63.5,1,0,0,response5disk,6,205,-4,5.5,1,0,0,rectangle,-4,5.5,1,0,0,7,7,0,0.003,-4,5.5,1,0,0,0,42,42,47,1,,,,,,,,,,,,,,,,,,,,,
,,,,,,,,,,,,,,,,,,,,,,,,,,,,,,,,,,,,,,,,,,,5efa10c6bb1e270bba6fb8d8,5ff3a3b2fd62fb9a4e4efc0e,2021-01-04_18h24.47.854,Colour_Similarity_Experiment_v1,2020.1.2,Win32,60,5ff3a352adaa099f7659f8cc,,,,,,,,,,,,,,,,,,,,FF,,,,,,,,7,0.809,,,,,,,,,,,,,,,,,,,,,,,,,,,,5,45,122.5,1,0,0,response1disk,7,206,24,10.5,1,0,0,rectangle,24,10.5,1,0,0,7,1,0,0,24,10.5,1,0,0,0,43,43,7,1,,,,,,,,,,,,,,,,,,,,,
,,,,,,,,,,,,,,,,,,,,,,,,,,,,,,,,,,,,,,,,,,,5efa10c6bb1e270bba6fb8d8,5ff3a3b2fd62fb9a4e4efc0e,2021-01-04_18h24.47.854,Colour_Similarity_Experiment_v1,2020.1.2,Win32,60,5ff3a352adaa099f7659f8cc,,,,,,,,,,,,,,,,,,,,PF,,,,,,,,7,0.851,,,,,,,,,,,,,,,,,,,,,,,,,,,,1,52,106.5,1,0,0,response1disk,6,207,17,-0.5,1,0,0,rectangle,17,-0.5,1,0,0,7,3,0,0.001,17,-0.5,1,0,0,0,44,44,144,1,,,,,,,,,,,,,,,,,,,,,
,,,,,,,,,,,,,,,,,,,,,,,,,,,,,,,,,,,,,,,,,,,5efa10c6bb1e270bba6fb8d8,5ff3a3b2fd62fb9a4e4efc0e,2021-01-04_18h24.47.854,Colour_Similarity_Experiment_v1,2020.1.2,Win32,60,5ff3a352adaa099f7659f8cc,,,,,,,,,,,,,,,,,,,,FF,,,,,,,,5,1.252,,,,,,,,,,,,,,,,,,,,,,,,,,,,1,115,-85.5,1,0,0,response3disk,8,208,23,-8.5,1,0,0,rectangle,23,-8.5,1,0,0,7,3,0,0,23,-8.5,1,0,0,0,45,45,27,1,,,,,,,,,,,,,,,,,,,,,
,,,,,,,,,,,,,,,,,,,,,,,,,,,,,,,,,,,,,,,,,,,5efa10c6bb1e270bba6fb8d8,5ff3a3b2fd62fb9a4e4efc0e,2021-01-04_18h24.47.854,Colour_Similarity_Experiment_v1,2020.1.2,Win32,60,5ff3a352adaa099f7659f8cc,,,,,,,,,,,,,,,,,,,,PF,,,,,,,,4,2.033,,,,,,,,,,,,,,,,,,,,,,,,,,,,2,56,-104.5,1,0,0,response3disk,1,209,8,0.5,1,0,0,rectangle,8,0.5,1,0,0,7,6,0,0.001,8,0.5,1,0,0,0,46,46,9,1,,,,,,,,,,,,,,,,,,,,,
,,,,,,,,,,,,,,,,,,,,,,,,,,,,,,,,,,,,,,,,,,,5efa10c6bb1e270bba6fb8d8,5ff3a3b2fd62fb9a4e4efc0e,2021-01-04_18h24.47.854,Colour_Similarity_Experiment_v1,2020.1.2,Win32,60,5ff3a352adaa099f7659f8cc,,,,,,,,,,,,,,,,,,,,PF,,,,,,,,7,1.872,,,,,,,,,,,,,,,,,,,,,,,,,,,,8,57,129.5,1,0,0,response1disk,2,210,19,10.5,1,0,0,rectangle,19,10.5,1,0,0,7,6,0,0.002,19,10.5,1,0,0,0,47,47,83,1,,,,,,,,,,,,,,,,,,,,,
,,,,,,,,,,,,,,,,,,,,,,,,,,,,,,,,,,,,,,,,,,,5efa10c6bb1e270bba6fb8d8,5ff3a3b2fd62fb9a4e4efc0e,2021-01-04_18h24.47.854,Colour_Similarity_Experiment_v1,2020.1.2,Win32,60,5ff3a352adaa099f7659f8cc,,,,,,,,,,,,,,,,,,,,FF,,,,,,,,0,0.735,,,,,,,,,,,,,,,,,,,,,,,,,,,,7,-46,137.5,1,0,0,response7disk,7,211,31,-1.5,1,0,0,rectangle,31,-1.5,1,0,0,7,7,0,0,31,-1.5,1,0,0,0,48,48,34,1,,,,,,,,,,,,,,,,,,,,,
,,,,,,,,,,,,,,,,,,,,,,,,,,,,,,,,,,,,,,,,,,,5efa10c6bb1e270bba6fb8d8,5ff3a3b2fd62fb9a4e4efc0e,2021-01-04_18h24.47.854,Colour_Similarity_Experiment_v1,2020.1.2,Win32,60,5ff3a352adaa099f7659f8cc,,,,,,,,,,,,,,,,,,,,FF,,,,,,,,7,0.73,,,,,,,,,,,,,,,,,,,,,,,,,,,,1,67,120.5,1,0,0,response1disk,4,212,4,11.5,1,0,0,rectangle,4,11.5,1,0,0,7,4,0,0.002,4,11.5,1,0,0,0,49,49,135,1,,,,,,,,,,,,,,,,,,,,,
,,,,,,,,,,,,,,,,,,,,,,,,,,,,,,,,,,,,,,,,,,,5efa10c6bb1e270bba6fb8d8,5ff3a3b2fd62fb9a4e4efc0e,2021-01-04_18h24.47.854,Colour_Similarity_Experiment_v1,2020.1.2,Win32,60,5ff3a352adaa099f7659f8cc,,,,,,,,,,,,,,,,,,,,PF,,,,,,,,1,1.154,,,,,,,,,,,,,,,,,,,,,,,,,,,,5,-134,59.5,1,0,0,response7disk,4,213,-3,2.5,1,0,0,rectangle,-3,2.5,1,0,0,7,2,0,0.003,-3,2.5,1,0,0,0,50,50,54,1,,,,,,,,,,,,,,,,,,,,,
,,,,,,,,,,,,,,,,,,,,,,,,,,,,,,,,,,,,,,,,,,,5efa10c6bb1e270bba6fb8d8,5ff3a3b2fd62fb9a4e4efc0e,2021-01-04_18h24.47.854,Colour_Similarity_Experiment_v1,2020.1.2,Win32,60,5ff3a352adaa099f7659f8cc,,,,,,,,,,,,,,,,,,,,FF,,,,,,,,0,1.192,,,,,,,,,,,,,,,,,,,,,,,,,,,,3,-48,113.5,1,0,0,response7disk,4,214,-14,-16.5,1,0,0,rectangle,-14,-16.5,1,0,0,7,7,0,0.001,-14,-16.5,1,0,0,0,51,51,110,1,,,,,,,,,,,,,,,,,,,,,
,,,,,,,,,,,,,,,,,,,,,,,,,,,,,,,,,,,,,,,,,,,5efa10c6bb1e270bba6fb8d8,5ff3a3b2fd62fb9a4e4efc0e,2021-01-04_18h24.47.854,Colour_Similarity_Experiment_v1,2020.1.2,Win32,60,5ff3a352adaa099f7659f8cc,,,,,,,,,,,,,,,,,,,,FF,,,,,,,,7,0.599,,,,,,,,,,,,,,,,,,,,,,,,,,,,8,61,114.5,1,0,0,response1disk,7,215,11,-9.5,1,0,0,rectangle,11,-9.5,1,0,0,7,5,0,0,11,-9.5,1,0,0,0,52,52,86,1,,,,,,,,,,,,,,,,,,,,,
,,,,,,,,,,,,,,,,,,,,,,,,,,,,,,,,,,,,,,,,,,,5efa10c6bb1e270bba6fb8d8,5ff3a3b2fd62fb9a4e4efc0e,2021-01-04_18h24.47.854,Colour_Similarity_Experiment_v1,2020.1.2,Win32,60,5ff3a352adaa099f7659f8cc,,,,,,,,,,,,,,,,,,,,FF,,,,,,,,7,0.892,,,,,,,,,,,,,,,,,,,,,,,,,,,,7,59,104.5,1,0,0,response1disk,4,216,23,3.5,1,0,0,rectangle,23,3.5,1,0,0,7,6,0,0.001,23,3.5,1,0,0,0,53,53,158,1,,,,,,,,,,,,,,,,,,,,,
,,,,,,,,,,,,,,,,,,,,,,,,,,,,,,,,,,,,,,,,,,,5efa10c6bb1e270bba6fb8d8,5ff3a3b2fd62fb9a4e4efc0e,2021-01-04_18h24.47.854,Colour_Similarity_Experiment_v1,2020.1.2,Win32,60,5ff3a352adaa099f7659f8cc,,,,,,,,,,,,,,,,,,,,FF,,,,,,,,5,1.312,,,,,,,,,,,,,,,,,,,,,,,,,,,,9,116,-45.5,1,0,0,response3disk,2,217,35,0.5,1,0,0,rectangle,-39,-95.5,1,0,0,3,3,1,1.453,18,-10.5,1,0,0,0,54,54,11,1,response5disk_3,rectangle,,,,,,,,,,,,,,,,,,,
,,,,,,,,,,,,,,,,,,,,,,,,,,,,,,,,,,,,,,,,,,,5efa10c6bb1e270bba6fb8d8,5ff3a3b2fd62fb9a4e4efc0e,2021-01-04_18h24.47.854,Colour_Similarity_Experiment_v1,2020.1.2,Win32,60,5ff3a352adaa099f7659f8cc,,,,,,,,,,,,,,,,,,,,FF,,,,,,,,7,0.688,,,,,,,,,,,,,,,,,,,,,,,,,,,,6,61,84.5,1,0,0,response1disk,1,218,30,-0.5,1,0,0,rectangle,30,-0.5,1,0,0,3,2,0,0.001,30,-0.5,1,0,0,0,55,55,5,1,,,,,,,,,,,,,,,,,,,,,
,,,,,,,,,,,,,,,,,,,,,,,,,,,,,,,,,,,,,,,,,,,5efa10c6bb1e270bba6fb8d8,5ff3a3b2fd62fb9a4e4efc0e,2021-01-04_18h24.47.854,Colour_Similarity_Experiment_v1,2020.1.2,Win32,60,5ff3a352adaa099f7659f8cc,,,,,,,,,,,,,,,,,,,,PF,,,,,,,,7,1.793,,,,,,,,,,,,,,,,,,,,,,,,,,,,7,75,102.5,1,0,0,response1disk,4,219,4,-11.5,1,0,0,rectangle,4,-11.5,1,0,0,3,3,0,0.001,4,-11.5,1,0,0,0,56,56,43,1,,,,,,,,,,,,,,,,,,,,,
,,,,,,,,,,,,,,,,,,,,,,,,,,,,,,,,,,,,,,,,,,,5efa10c6bb1e270bba6fb8d8,5ff3a3b2fd62fb9a4e4efc0e,2021-01-04_18h24.47.854,Colour_Similarity_Experiment_v1,2020.1.2,Win32,60,5ff3a352adaa099f7659f8cc,,,,,,,,,,,,,,,,,,,,PF,,,,,,,,5,1.177,,,,,,,,,,,,,,,,,,,,,,,,,,,,7,116,-51.5,1,0,0,response3disk,3,220,-24,-4.5,1,0,0,rectangle,-24,-4.5,1,0,0,3,6,0,0.003,-24,-4.5,1,0,0,0,57,57,81,1,,,,,,,,,,,,,,,,,,,,,
,,,,,,,,,,,,,,,,,,,,,,,,,,,,,,,,,,,,,,,,,,,5efa10c6bb1e270bba6fb8d8,5ff3a3b2fd62fb9a4e4efc0e,2021-01-04_18h24.47.854,Colour_Similarity_Experiment_v1,2020.1.2,Win32,60,5ff3a352adaa099f7659f8cc,,,,,,,,,,,,,,,,,,,,PF,,,,,,,,7,2.375,,,,,,,,,,,,,,,,,,,,,,,,,,,,9,56,150.5,1,0,0,response1disk,3,221,24,8.5,1,0,0,rectangle,24,8.5,1,0,0,3,2,0,0.001,24,8.5,1,0,0,0,58,58,119,1,,,,,,,,,,,,,,,,,,,,,
,,,,,,,,,,,,,,,,,,,,,,,,,,,,,,,,,,,,,,,,,,,5efa10c6bb1e270bba6fb8d8,5ff3a3b2fd62fb9a4e4efc0e,2021-01-04_18h24.47.854,Colour_Similarity_Experiment_v1,2020.1.2,Win32,60,5ff3a352adaa099f7659f8cc,,,,,,,,,,,,,,,,,,,,FF,,,,,,,,2,1.096,,,,,,,,,,,,,,,,,,,,,,,,,,,,9,-101,-57.5,1,0,0,response5disk,1,222,8,9.5,1,0,0,rectangle,8,9.5,1,0,0,3,7,0,0.001,8,9.5,1,0,0,0,59,59,111,1,,,,,,,,,,,,,,,,,,,,,
,,,,,,,,,,,,,,,,,,,,,,,,,,,,,,,,,,,,,,,,,,,5efa10c6bb1e270bba6fb8d8,5ff3a3b2fd62fb9a4e4efc0e,2021-01-04_18h24.47.854,Colour_Similarity_Experiment_v1,2020.1.2,Win32,60,5ff3a352adaa099f7659f8cc,,,,,,,,,,,,,,,,,,,,PF,,,,,,,,0,0.717,,,,,,,,,,,,,,,,,,,,,,,,,,,,6,-47,129.5,1,0,0,response7disk,6,223,3,-0.5,1,0,0,rectangle,3,-0.5,1,0,0,3,6,0,0.002,3,-0.5,1,0,0,0,60,60,0,1,,,,,,,,,,,,,,,,,,,,,
,,,,,,,,,,,,,,,,,,,,,,,,,,,,,,,,,,,,,,,,,,,5efa10c6bb1e270bba6fb8d8,5ff3a3b2fd62fb9a4e4efc0e,2021-01-04_18h24.47.854,Colour_Similarity_Experiment_v1,2020.1.2,Win32,60,5ff3a352adaa099f7659f8cc,,,,,,,,,,,,,,,,,,,,PF,,,,,,,,7,0.67,,,,,,,,,,,,,,,,,,,,,,,,,,,,4,47,120.5,1,0,0,response1disk,1,224,-3,-6.5,1,0,0,rectangle,-3,-6.5,1,0,0,3,7,0,0.001,-3,-6.5,1,0,0,0,61,61,115,1,,,,,,,,,,,,,,,,,,,,,
,,,,,,,,,,,,,,,,,,,,,,,,,,,,,,,,,,,,,,,,,,,5efa10c6bb1e270bba6fb8d8,5ff3a3b2fd62fb9a4e4efc0e,2021-01-04_18h24.47.854,Colour_Similarity_Experiment_v1,2020.1.2,Win32,60,5ff3a352adaa099f7659f8cc,,,,,,,,,,,,,,,,,,,,FF,,,,,,,,1,0.946,,,,,,,,,,,,,,,,,,,,,,,,,,,,5,-104,55.5,1,0,0,response7disk,6,225,2,-0.5,1,0,0,rectangle,2,-0.5,1,0,0,3,7,0,0.001,2,-0.5,1,0,0,0,62,62,12,1,,,,,,,,,,,,,,,,,,,,,
,,,,,,,,,,,,,,,,,,,,,,,,,,,,,,,,,,,,,,,,,,,5efa10c6bb1e270bba6fb8d8,5ff3a3b2fd62fb9a4e4efc0e,2021-01-04_18h24.47.854,Colour_Similarity_Experiment_v1,2020.1.2,Win32,60,5ff3a352adaa099f7659f8cc,,,,,,,,,,,,,,,,,,,,PF,,,,,,,,1,1.097,,,,,,,,,,,,,,,,,,,,,,,,,,,,4,-92,47.5,1,0,0,response7disk,3,226,7,-6.5,1,0,0,rectangle,7,-6.5,1,0,0,3,2,0,0.001,7,-6.5,1,0,0,0,63,63,89,1,,,,,,,,,,,,,,,,,,,,,
,,,,,,,,,,,,,,,,,,,,,,,,,,,,,,,,,,,,,,,,,,,5efa10c6bb1e270bba6fb8d8,5ff3a3b2fd62fb9a4e4efc0e,2021-01-04_18h24.47.854,Colour_Similarity_Experiment_v1,2020.1.2,Win32,60,5ff3a352adaa099f7659f8cc,,,,,,,,,,,,,,,,,,,,PF,,,,,,,,7,0.757,,,,,,,,,,,,,,,,,,,,,,,,,,,,5,61,118.5,1,0,0,response1disk,2,227,17,-3.5,1,0,0,rectangle,17,-3.5,1,0,0,3,6,0,0.002,17,-3.5,1,0,0,0,64,64,129,1,,,,,,,,,,,,,,,,,,,,,
,,,,,,,,,,,,,,,,,,,,,,,,,,,,,,,,,,,,,,,,,,,5efa10c6bb1e270bba6fb8d8,5ff3a3b2fd62fb9a4e4efc0e,2021-01-04_18h24.47.854,Colour_Similarity_Experiment_v1,2020.1.2,Win32,60,5ff3a352adaa099f7659f8cc,,,,,,,,,,,,,,,,,,,,PF,,,,,,,,7,0.626,,,,,,,,,,,,,,,,,,,,,,,,,,,,4,45,120.5,1,0,0,response1disk,8,228,19,-5.5,1,0,0,rectangle,19,-5.5,1,0,0,3,1,0,0.001,19,-5.5,1,0,0,0,65,65,124,1,,,,,,,,,,,,,,,,,,,,,
,,,,,,,,,,,,,,,,,,,,,,,,,,,,,,,,,,,,,,,,,,,5efa10c6bb1e270bba6fb8d8,5ff3a3b2fd62fb9a4e4efc0e,2021-01-04_18h24.47.854,Colour_Similarity_Experiment_v1,2020.1.2,Win32,60,5ff3a352adaa099f7659f8cc,,,,,,,,,,,,,,,,,,,,FF,,,,,,,,0,1.034,,,,,,,,,,,,,,,,,,,,,,,,,,,,2,-74,138.5,1,0,0,response7disk,2,229,-6,0.5,1,0,0,rectangle,-6,0.5,1,0,0,3,5,0,0.006,-6,0.5,1,0,0,0,66,66,142,1,,,,,,,,,,,,,,,,,,,,,
,,,,,,,,,,,,,,,,,,,,,,,,,,,,,,,,,,,,,,,,,,,5efa10c6bb1e270bba6fb8d8,5ff3a3b2fd62fb9a4e4efc0e,2021-01-04_18h24.47.854,Colour_Similarity_Experiment_v1,2020.1.2,Win32,60,5ff3a352adaa099f7659f8cc,,,,,,,,,,,,,,,,,,,,FF,,,,,,,,1,1.009,,,,,,,,,,,,,,,,,,,,,,,,,,,,6,-125,70.5,1,0,0,response7disk,5,230,-6,8.5,1,0,0,rectangle,-6,8.5,1,0,0,3,3,0,0.001,-6,8.5,1,0,0,0,67,67,126,1,,,,,,,,,,,,,,,,,,,,,
,,,,,,,,,,,,,,,,,,,,,,,,,,,,,,,,,,,,,,,,,,,5efa10c6bb1e270bba6fb8d8,5ff3a3b2fd62fb9a4e4efc0e,2021-01-04_18h24.47.854,Colour_Similarity_Experiment_v1,2020.1.2,Win32,60,5ff3a352adaa099f7659f8cc,,,,,,,,,,,,,,,,,,,,FF,,,,,,,,7,0.65,,,,,,,,,,,,,,,,,,,,,,,,,,,,7,77,132.5,1,0,0,response1disk,3,231,-4,-5.5,1,0,0,rectangle,-4,-5.5,1,0,0,3,0,0,0.002,-4,-5.5,1,0,0,0,68,68,73,1,,,,,,,,,,,,,,,,,,,,,
,,,,,,,,,,,,,,,,,,,,,,,,,,,,,,,,,,,,,,,,,,,5efa10c6bb1e270bba6fb8d8,5ff3a3b2fd62fb9a4e4efc0e,2021-01-04_18h24.47.854,Colour_Similarity_Experiment_v1,2020.1.2,Win32,60,5ff3a352adaa099f7659f8cc,,,,,,,,,,,,,,,,,,,,FF,,,,,,,,1,0.898,,,,,,,,,,,,,,,,,,,,,,,,,,,,6,-106,46.5,1,0,0,response7disk,7,232,-7,3.5,1,0,0,rectangle,-7,3.5,1,0,0,3,7,0,0.003,-7,3.5,1,0,0,0,69,69,18,1,,,,,,,,,,,,,,,,,,,,,
,,,,,,,,,,,,,,,,,,,,,,,,,,,,,,,,,,,,,,,,,,,5efa10c6bb1e270bba6fb8d8,5ff3a3b2fd62fb9a4e4efc0e,2021-01-04_18h24.47.854,Colour_Similarity_Experiment_v1,2020.1.2,Win32,60,5ff3a352adaa099f7659f8cc,,,,,,,,,,,,,,,,,,,,PF,,,,,,,,1,0.999,,,,,,,,,,,,,,,,,,,,,,,,,,,,3,-120,57.5,1,0,0,response7disk,4,233,-4,13.5,1,0,0,rectangle,-4,13.5,1,0,0,3,7,0,0.001,-4,13.5,1,0,0,0,70,70,30,1,,,,,,,,,,,,,,,,,,,,,
,,,,,,,,,,,,,,,,,,,,,,,,,,,,,,,,,,,,,,,,,,,5efa10c6bb1e270bba6fb8d8,5ff3a3b2fd62fb9a4e4efc0e,2021-01-04_18h24.47.854,Colour_Similarity_Experiment_v1,2020.1.2,Win32,60,5ff3a352adaa099f7659f8cc,,,,,,,,,,,,,,,,,,,,FF,,,,,,,,7,0.904,,,,,,,,,,,,,,,,,,,,,,,,,,,,1,70,138.5,1,0,0,response1disk,5,234,16,6.5,1,0,0,rectangle,16,6.5,1,0,0,3,4,0,0.002,16,6.5,1,0,0,0,71,71,82,1,,,,,,,,,,,,,,,,,,,,,
,,,,,,,,,,,,,,,,,,,,,,,,,,,,,,,,,,,,,,,,,,,5efa10c6bb1e270bba6fb8d8,5ff3a3b2fd62fb9a4e4efc0e,2021-01-04_18h24.47.854,Colour_Similarity_Experiment_v1,2020.1.2,Win32,60,5ff3a352adaa099f7659f8cc,,,,,,,,,,,,,,,,,,,,PF,,,,,,,,2,1.093,,,,,,,,,,,,,,,,,,,,,,,,,,,,5,-135,-41.5,1,0,0,response5disk,3,235,-29,-9.5,1,0,0,rectangle,-29,-9.5,1,0,0,3,1,0,0,-29,-9.5,1,0,0,0,72,72,109,1,,,,,,,,,,,,,,,,,,,,,
,,,,,,,,,,,,,,,,,,,,,,,,,,,,,,,,,,,,,,,,,,,5efa10c6bb1e270bba6fb8d8,5ff3a3b2fd62fb9a4e4efc0e,2021-01-04_18h24.47.854,Colour_Similarity_Experiment_v1,2020.1.2,Win32,60,5ff3a352adaa099f7659f8cc,,,,,,,,,,,,,,,,,,,,FF,,,,,,,,1,0.985,,,,,,,,,,,,,,,,,,,,,,,,,,,,8,-126,47.5,1,0,0,response7disk,9,236,-22,-15.5,1,0,0,rectangle,-22,-15.5,1,0,0,3,5,0,0.001,-22,-15.5,1,0,0,0,73,73,105,1,,,,,,,,,,,,,,,,,,,,,
