key_resp.keys,key_resp.rt,key_resp_16.keys,key_resp_16.rt,key_resp_2.keys,key_resp_2.rt,X Scale,ratio_pxpermm,screen_size_x,screen_size_y,testsize,key_resp_3.keys,key_resp_3.rt,key_resp_4.keys,key_resp_4.rt,line_size,key_resp_5.keys,key_resp_5.rt,key_resp_6.keys,key_resp_6.rt,key_resp_8.keys,key_resp_8.rt,key_resp_7.keys,key_resp_7.rt,key_resp_12.keys,key_resp_12.rt,key_resp_11.keys,key_resp_11.rt,key_resp_18.keys,key_resp_18.rt,key_resp_21.keys,key_resp_21.rt,key_resp_13.keys,key_resp_13.rt,key_resp_19.keys,key_resp_19.rt,ballposx,viewer_distance,trials.thisRepN,trials.thisTrialN,trials.thisN,trials.thisIndex,trials.ran,participant,session,date,expName,psychopyVersion,OS,frameRate,study_id,viewerdistancecm,DVA_to_distance,radius_F,radius_P,r_F,R_P,key_resp_20.keys,key_resp_20.rt,key_resp_14.keys,key_resp_14.rt,key_resp_15.keys,key_resp_15.rt,key_resp_17.keys,key_resp_17.rt,key_resp_9.keys,key_resp_9.rt,key_resp_10.keys,key_resp_10.rt,Colour_1,Ecc,mouse_5.x,mouse_5.y,mouse_5.leftButton,mouse_5.midButton,mouse_5.rightButton,mouse_5.clicked_name,Colour_2,similarity,response_time,mouse_10.x,mouse_10.y,mouse_10.leftButton,mouse_10.midButton,mouse_10.rightButton,mouse_10.clicked_name,mouse_7.x,mouse_7.y,mouse_7.leftButton,mouse_7.midButton,mouse_7.rightButton,catchnumberprac,mouse_6.x,mouse_6.y,mouse_6.leftButton,mouse_6.midButton,mouse_6.rightButton,duringprac.thisRepN,duringprac.thisTrialN,duringprac.thisN,duringprac.thisIndex,duringprac.ran,mouse_7.clicked_name,mouse_6.clicked_name,catchprac,key_resp_22.keys,key_resp_22.rt,Colour1,mouse.x,mouse.y,mouse.leftButton,mouse.midButton,mouse.rightButton,mouse.clicked_name,Colour2,trialnumber,mouse_2.x,mouse_2.y,mouse_2.leftButton,mouse_2.midButton,mouse_2.rightButton,mouse_2.clicked_name,mouse_3.x,mouse_3.y,mouse_3.leftButton,mouse_3.midButton,mouse_3.rightButton,catchresponse,catchnumber,Catch,response_time_catch,mouse_11.x,mouse_11.y,mouse_11.leftButton,mouse_11.midButton,mouse_11.rightButton,trials_2.thisRepN,trials_2.thisTrialN,trials_2.thisN,trials_2.thisIndex,trials_2.ran,mouse_3.clicked_name,mouse_11.clicked_name,trials_3.thisRepN,trials_3.thisTrialN,trials_3.thisN,trials_3.thisIndex,trials_3.ran,answer1,rt1,answer2,rt2,answer3,rt3,answer4,rt4,answer5,rt5,answer6,rt6,answer7,rt7
space,3.709785,space,10.909505,space,12.129575,40.6,4.06,472.9064039,266.0098522,1920,space,16.753185,space,16.12491,81.2,space,9.499885,space,2.58865,space,0.052845,space,2.364935,space,2.407135,space,15.0556,space,6.231685,space,4.24476,space,6.362055,return,3.58047,106.56,678.5952962,0,0,0,0,1,5f1a3c1d94d028134ad46340,5ff3a3e383f6af98fc097e41,2021-01-05_01h25.37.880,Colour_Similarity_Experiment_v1,2020.1.2,Win32,60,5ff3a352adaa099f7659f8cc,,,,,,,,,,,,,,,,,,,,,,,,,,,,,,,,,,,,,,,,,,,,,,,,,,,,,,,,,,,,,,,,,,,,,,,,,,,,,,,,,,,,,,,,,,,,,,,,,,,,,,,,,,,,,,,
,,,,,,,,,,,,,,,,,,,,,,,,,,,,,,,,,,return,3.24326,158.4,625.4107592,1,0,1,0,1,5f1a3c1d94d028134ad46340,5ff3a3e383f6af98fc097e41,2021-01-05_01h25.37.880,Colour_Similarity_Experiment_v1,2020.1.2,Win32,60,5ff3a352adaa099f7659f8cc,,,,,,,,,,,,,,,,,,,,,,,,,,,,,,,,,,,,,,,,,,,,,,,,,,,,,,,,,,,,,,,,,,,,,,,,,,,,,,,,,,,,,,,,,,,,,,,,,,,,,,,,,,,,,,,
,,,,,,,,,,,,,,,,,,,,,,,,,,,,,,,,,,return,3.365185,141.12,643.1389382,2,0,2,0,1,5f1a3c1d94d028134ad46340,5ff3a3e383f6af98fc097e41,2021-01-05_01h25.37.880,Colour_Similarity_Experiment_v1,2020.1.2,Win32,60,5ff3a352adaa099f7659f8cc,,,,,,,,,,,,,,,,,,,,,,,,,,,,,,,,,,,,,,,,,,,,,,,,,,,,,,,,,,,,,,,,,,,,,,,,,,,,,,,,,,,,,,,,,,,,,,,,,,,,,,,,,,,,,,,
,,,,,,,,,,,,,,,,,,,,,,,,,,,,,,,,,,return,3.17475,169.92,613.5919732,3,0,3,0,1,5f1a3c1d94d028134ad46340,5ff3a3e383f6af98fc097e41,2021-01-05_01h25.37.880,Colour_Similarity_Experiment_v1,2020.1.2,Win32,60,5ff3a352adaa099f7659f8cc,,,,,,,,,,,,,,,,,,,,,,,,,,,,,,,,,,,,,,,,,,,,,,,,,,,,,,,,,,,,,,,,,,,,,,,,,,,,,,,,,,,,,,,,,,,,,,,,,,,,,,,,,,,,,,,
,,,,,,,,,,,,,,,,,,,,,,,,,,,,,,,,,,return,3.28229,155.52,628.3654557,4,0,4,0,1,5f1a3c1d94d028134ad46340,5ff3a3e383f6af98fc097e41,2021-01-05_01h25.37.880,Colour_Similarity_Experiment_v1,2020.1.2,Win32,60,5ff3a352adaa099f7659f8cc,,,,,,,,,,,,,,,,,,,,,,,,,,,,,,,,,,,,,,,,,,,,,,,,,,,,,,,,,,,,,,,,,,,,,,,,,,,,,,,,,,,,,,,,,,,,,,,,,,,,,,,,,,,,,,,
,,,,,,,,,,,,,,,,,,,,,,,,,,,,,,,,,,,,,,,,,,,5f1a3c1d94d028134ad46340,5ff3a3e383f6af98fc097e41,2021-01-05_01h25.37.880,Colour_Similarity_Experiment_v1,2020.1.2,Win32,60,5ff3a352adaa099f7659f8cc,63,10.99668697,66.96982366,446.4654911,44.64654911,200.909471,space,3.45078,space,3.966575,space,11.838785,space,1.52025,space,1.35495,space,8.904585,1,PF,35,-97.5,1,0,0,response3disk_5,5,4,8.23548,5,-3,1,0,0,rectangle_8,5,-3,1,0,0,2,5,-3,1,0,0,0,0,0,2,1,,,,,,,,,,,,,,,,,,,,,,,,,,,,,,,,,,,,,,,,,,,,,,,,,,,,,,,,,,,,
,,,,,,,,,,,,,,,,,,,,,,,,,,,,,,,,,,,,,,,,,,,5f1a3c1d94d028134ad46340,5ff3a3e383f6af98fc097e41,2021-01-05_01h25.37.880,Colour_Similarity_Experiment_v1,2020.1.2,Win32,60,5ff3a352adaa099f7659f8cc,,,,,,,,,,,,,,,,,,,4,PF,111,43,1,0,0,response1disk_5,9,6,4.877705,3,5,1,0,0,rectangle_8,-106,-42,1,0,0,2,25,-1,1,0,0,0,1,1,6,1,response5disk_7,rectangle_4,,,,,,,,,,,,,,,,,,,,,,,,,,,,,,,,,,,,,,,,,,,,,,,,,,,,,,,,,,
,,,,,,,,,,,,,,,,,,,,,,,,,,,,,,,,,,,,,,,,,,,5f1a3c1d94d028134ad46340,5ff3a3e383f6af98fc097e41,2021-01-05_01h25.37.880,Colour_Similarity_Experiment_v1,2020.1.2,Win32,60,5ff3a352adaa099f7659f8cc,,,,,,,,,,,,,,,,,,,1,FF,-58,-96,1,0,0,response5disk_5,2,3,3.968365,8,-11,1,0,0,rectangle_8,8,-11,1,0,0,2,8,-11,1,0,0,0,2,2,5,1,,,,,,,,,,,,,,,,,,,,,,,,,,,,,,,,,,,,,,,,,,,,,,,,,,,,,,,,,,,,
,,,,,,,,,,,,,,,,,,,,,,,,,,,,,,,,,,,,,,,,,,,5f1a3c1d94d028134ad46340,5ff3a3e383f6af98fc097e41,2021-01-05_01h25.37.880,Colour_Similarity_Experiment_v1,2020.1.2,Win32,60,5ff3a352adaa099f7659f8cc,,,,,,,,,,,,,,,,,,,3,FF,-92,54,1,0,0,response7disk_5,4,1,2.122995,11,1,1,0,0,rectangle_8,11,1,1,0,0,2,11,1,1,0,0,0,3,3,3,1,,,,,,,,,,,,,,,,,,,,,,,,,,,,,,,,,,,,,,,,,,,,,,,,,,,,,,,,,,,,
,,,,,,,,,,,,,,,,,,,,,,,,,,,,,,,,,,,,,,,,,,,5f1a3c1d94d028134ad46340,5ff3a3e383f6af98fc097e41,2021-01-05_01h25.37.880,Colour_Similarity_Experiment_v1,2020.1.2,Win32,60,5ff3a352adaa099f7659f8cc,,,,,,,,,,,,,,,,,,,2,FF,63,79,1,0,0,response1disk_5,8,7,1.687285,8,-17,1,0,0,rectangle_8,8,-17,1,0,0,2,8,-17,1,0,0,0,4,4,0,1,,,,,,,,,,,,,,,,,,,,,,,,,,,,,,,,,,,,,,,,,,,,,,,,,,,,,,,,,,,,
,,,,,,,,,,,,,,,,,,,,,,,,,,,,,,,,,,,,,,,,,,,5f1a3c1d94d028134ad46340,5ff3a3e383f6af98fc097e41,2021-01-05_01h25.37.880,Colour_Similarity_Experiment_v1,2020.1.2,Win32,60,5ff3a352adaa099f7659f8cc,,,,,,,,,,,,,,,,,,,4,PF,-111,42,1,0,0,response7disk_5,3,1,1.40795,-25,-8,1,0,0,rectangle_8,-96,-49,1,0,0,2,9,1,1,0,0,0,5,5,4,1,response5disk_7,rectangle_4,,,,,,,,,,,,,,,,,,,,,,,,,,,,,,,,,,,,,,,,,,,,,,,,,,,,,,,,,,
,,,,,,,,,,,,,,,,,,,,,,,,,,,,,,,,,,,,,,,,,,,5f1a3c1d94d028134ad46340,5ff3a3e383f6af98fc097e41,2021-01-05_01h25.37.880,Colour_Similarity_Experiment_v1,2020.1.2,Win32,60,5ff3a352adaa099f7659f8cc,,,,,,,,,,,,,,,,,,,8,PF,-81,-52,1,0,0,response5disk_5,7,2,1.89444,19,18,1,0,0,rectangle_8,19,18,1,0,0,2,19,18,1,0,0,0,6,6,1,1,,,6,,,,,,,,,,,,,,,,,,,,,,,,,,,,,,,,,,,,,,,,,,,,,,,,,,,,,,,,,
,,,,,,,,,,,,,,,,,,,,,,,,,,,,,,,,,,,,,,,,,,,5f1a3c1d94d028134ad46340,5ff3a3e383f6af98fc097e41,2021-01-05_01h25.37.880,Colour_Similarity_Experiment_v1,2020.1.2,Win32,60,5ff3a352adaa099f7659f8cc,,,,,,,,,,,,,,,,,,,,PF,,,,,,,,1,1.21781,,,,,,,,,,,,,,,,,,,,,,,,,,space,2.6859,2,-85,49,1,0,0,response7disk,8,1,-6,6,1,0,0,rectangle,-6,6,1,0,0,,1,0,0.001055,-6,6,1,0,0,0,0,0,52,1,,,,,,,,,,,,,,,,,,,,,
,,,,,,,,,,,,,,,,,,,,,,,,,,,,,,,,,,,,,,,,,,,5f1a3c1d94d028134ad46340,5ff3a3e383f6af98fc097e41,2021-01-05_01h25.37.880,Colour_Similarity_Experiment_v1,2020.1.2,Win32,60,5ff3a352adaa099f7659f8cc,,,,,,,,,,,,,,,,,,,,FF,,,,,,,,2,1.31557,,,,,,,,,,,,,,,,,,,,,,,,,,,,4,-101,-55,1,0,0,response5disk,5,2,-2,7,1,0,0,rectangle,-2,7,1,0,0,,7,0,0.00063,-2,7,1,0,0,0,1,1,116,1,,,,,,,,,,,,,,,,,,,,,
,,,,,,,,,,,,,,,,,,,,,,,,,,,,,,,,,,,,,,,,,,,5f1a3c1d94d028134ad46340,5ff3a3e383f6af98fc097e41,2021-01-05_01h25.37.880,Colour_Similarity_Experiment_v1,2020.1.2,Win32,60,5ff3a352adaa099f7659f8cc,,,,,,,,,,,,,,,,,,,,FF,,,,,,,,4,1.80594,,,,,,,,,,,,,,,,,,,,,,,,,,,,3,61,-100,1,0,0,response3disk,7,3,-7,9,1,0,0,rectangle,-7,9,1,0,0,,2,0,0.00076,-7,9,1,0,0,0,2,2,118,1,,,,,,,,,,,,,,,,,,,,,
,,,,,,,,,,,,,,,,,,,,,,,,,,,,,,,,,,,,,,,,,,,5f1a3c1d94d028134ad46340,5ff3a3e383f6af98fc097e41,2021-01-05_01h25.37.880,Colour_Similarity_Experiment_v1,2020.1.2,Win32,60,5ff3a352adaa099f7659f8cc,,,,,,,,,,,,,,,,,,,,FF,,,,,,,,1,1.21875,,,,,,,,,,,,,,,,,,,,,,,,,,,,9,-81,45,1,0,0,response7disk,8,4,12,2,1,0,0,rectangle,12,2,1,0,0,,5,0,0.000545,12,2,1,0,0,0,3,3,6,1,,,,,,,,,,,,,,,,,,,,,
,,,,,,,,,,,,,,,,,,,,,,,,,,,,,,,,,,,,,,,,,,,5f1a3c1d94d028134ad46340,5ff3a3e383f6af98fc097e41,2021-01-05_01h25.37.880,Colour_Similarity_Experiment_v1,2020.1.2,Win32,60,5ff3a352adaa099f7659f8cc,,,,,,,,,,,,,,,,,,,,PF,,,,,,,,7,1.62471,,,,,,,,,,,,,,,,,,,,,,,,,,,,6,49,77,1,0,0,response1disk,8,5,-3,4,1,0,0,rectangle,-3,4,1,0,0,,2,0,0.000725,-3,4,1,0,0,0,4,4,64,1,,,,,,,,,,,,,,,,,,,,,
,,,,,,,,,,,,,,,,,,,,,,,,,,,,,,,,,,,,,,,,,,,5f1a3c1d94d028134ad46340,5ff3a3e383f6af98fc097e41,2021-01-05_01h25.37.880,Colour_Similarity_Experiment_v1,2020.1.2,Win32,60,5ff3a352adaa099f7659f8cc,,,,,,,,,,,,,,,,,,,,FF,,,,,,,,1,1.213975,,,,,,,,,,,,,,,,,,,,,,,,,,,,4,-93,32,1,0,0,response7disk,6,6,12,6,1,0,0,rectangle,12,6,1,0,0,,0,0,0.00056,12,6,1,0,0,0,5,5,122,1,,,,,,,,,,,,,,,,,,,,,
,,,,,,,,,,,,,,,,,,,,,,,,,,,,,,,,,,,,,,,,,,,5f1a3c1d94d028134ad46340,5ff3a3e383f6af98fc097e41,2021-01-05_01h25.37.880,Colour_Similarity_Experiment_v1,2020.1.2,Win32,60,5ff3a352adaa099f7659f8cc,,,,,,,,,,,,,,,,,,,,PF,,,,,,,,1,2.13006,,,,,,,,,,,,,,,,,,,,,,,,,,,,1,-112,25,1,0,0,response7disk,7,7,-2,0,1,0,0,rectangle,-2,0,1,0,0,,7,0,0.001005,-2,0,1,0,0,0,6,6,150,1,,,,,,,,,,,,,,,,,,,,,
,,,,,,,,,,,,,,,,,,,,,,,,,,,,,,,,,,,,,,,,,,,5f1a3c1d94d028134ad46340,5ff3a3e383f6af98fc097e41,2021-01-05_01h25.37.880,Colour_Similarity_Experiment_v1,2020.1.2,Win32,60,5ff3a352adaa099f7659f8cc,,,,,,,,,,,,,,,,,,,,FF,,,,,,,,7,2.406215,,,,,,,,,,,,,,,,,,,,,,,,,,,,2,53,97,1,0,0,response1disk,7,8,-25,3,1,0,0,rectangle,-25,3,1,0,0,,5,0,0.00061,-25,3,1,0,0,0,7,7,63,1,,,,,,,,,,,,,,,,,,,,,
,,,,,,,,,,,,,,,,,,,,,,,,,,,,,,,,,,,,,,,,,,,5f1a3c1d94d028134ad46340,5ff3a3e383f6af98fc097e41,2021-01-05_01h25.37.880,Colour_Similarity_Experiment_v1,2020.1.2,Win32,60,5ff3a352adaa099f7659f8cc,,,,,,,,,,,,,,,,,,,,PF,,,,,,,,6,1.891995,,,,,,,,,,,,,,,,,,,,,,,,,,,,7,119,45,1,0,0,response1disk,3,9,2,-2,1,0,0,rectangle,2,-2,1,0,0,,5,0,0.00052,2,-2,1,0,0,0,8,8,81,1,,,,,,,,,,,,,,,,,,,,,
,,,,,,,,,,,,,,,,,,,,,,,,,,,,,,,,,,,,,,,,,,,5f1a3c1d94d028134ad46340,5ff3a3e383f6af98fc097e41,2021-01-05_01h25.37.880,Colour_Similarity_Experiment_v1,2020.1.2,Win32,60,5ff3a352adaa099f7659f8cc,,,,,,,,,,,,,,,,,,,,PF,,,,,,,,0,2.697215,,,,,,,,,,,,,,,,,,,,,,,,,,,,6,-23,107,1,0,0,response7disk,6,10,3,-9,1,0,0,rectangle,3,-9,1,0,0,,7,0,0.000555,3,-9,1,0,0,0,9,9,0,1,,,,,,,,,,,,,,,,,,,,,
,,,,,,,,,,,,,,,,,,,,,,,,,,,,,,,,,,,,,,,,,,,5f1a3c1d94d028134ad46340,5ff3a3e383f6af98fc097e41,2021-01-05_01h25.37.880,Colour_Similarity_Experiment_v1,2020.1.2,Win32,60,5ff3a352adaa099f7659f8cc,,,,,,,,,,,,,,,,,,,,FF,,,,,,,,3,1.46914,,,,,,,,,,,,,,,,,,,,,,,,,,,,6,-59,-121,1,0,0,response5disk,2,11,-9,9,1,0,0,rectangle,-9,9,1,0,0,,5,0,0.00059,-9,9,1,0,0,0,10,10,112,1,,,,,,,,,,,,,,,,,,,,,
,,,,,,,,,,,,,,,,,,,,,,,,,,,,,,,,,,,,,,,,,,,5f1a3c1d94d028134ad46340,5ff3a3e383f6af98fc097e41,2021-01-05_01h25.37.880,Colour_Similarity_Experiment_v1,2020.1.2,Win32,60,5ff3a352adaa099f7659f8cc,,,,,,,,,,,,,,,,,,,,FF,,,,,,,,7,2.77498,,,,,,,,,,,,,,,,,,,,,,,,,,,,8,71,92,1,0,0,response1disk,4,12,-12,1,1,0,0,rectangle,-12,1,1,0,0,,7,0,0.0006,-12,1,1,0,0,0,11,11,88,1,,,,,,,,,,,,,,,,,,,,,
,,,,,,,,,,,,,,,,,,,,,,,,,,,,,,,,,,,,,,,,,,,5f1a3c1d94d028134ad46340,5ff3a3e383f6af98fc097e41,2021-01-05_01h25.37.880,Colour_Similarity_Experiment_v1,2020.1.2,Win32,60,5ff3a352adaa099f7659f8cc,,,,,,,,,,,,,,,,,,,,PF,,,,,,,,0,1.36357,,,,,,,,,,,,,,,,,,,,,,,,,,,,3,-51,95,1,0,0,response7disk,3,13,12,-8,1,0,0,rectangle,12,-8,1,0,0,,0,0,0.00052,12,-8,1,0,0,0,12,12,4,1,,,,,,,,,,,,,,,,,,,,,
,,,,,,,,,,,,,,,,,,,,,,,,,,,,,,,,,,,,,,,,,,,5f1a3c1d94d028134ad46340,5ff3a3e383f6af98fc097e41,2021-01-05_01h25.37.880,Colour_Similarity_Experiment_v1,2020.1.2,Win32,60,5ff3a352adaa099f7659f8cc,,,,,,,,,,,,,,,,,,,,PF,,,,,,,,7,1.989335,,,,,,,,,,,,,,,,,,,,,,,,,,,,1,53,95,1,0,0,response1disk,6,14,0,-11,1,0,0,rectangle,0,-11,1,0,0,,3,0,0.000555,0,-11,1,0,0,0,13,13,144,1,,,,,,,,,,,,,,,,,,,,,
,,,,,,,,,,,,,,,,,,,,,,,,,,,,,,,,,,,,,,,,,,,5f1a3c1d94d028134ad46340,5ff3a3e383f6af98fc097e41,2021-01-05_01h25.37.880,Colour_Similarity_Experiment_v1,2020.1.2,Win32,60,5ff3a352adaa099f7659f8cc,,,,,,,,,,,,,,,,,,,,PF,,,,,,,,5,2.37491,,,,,,,,,,,,,,,,,,,,,,,,,,,,5,98,-56,1,0,0,response3disk,7,15,5,-6,1,0,0,rectangle,5,-6,1,0,0,,4,0,0.000555,5,-6,1,0,0,0,14,14,146,1,,,,,,,,,,,,,,,,,,,,,
,,,,,,,,,,,,,,,,,,,,,,,,,,,,,,,,,,,,,,,,,,,5f1a3c1d94d028134ad46340,5ff3a3e383f6af98fc097e41,2021-01-05_01h25.37.880,Colour_Similarity_Experiment_v1,2020.1.2,Win32,60,5ff3a352adaa099f7659f8cc,,,,,,,,,,,,,,,,,,,,PF,,,,,,,,1,6.455525,,,,,,,,,,,,,,,,,,,,,,,,,,,,7,-80,52,1,0,0,response7disk,7,16,34,3,1,0,0,rectangle,34,3,1,0,0,,6,0,0.00108,34,3,1,0,0,0,15,15,51,1,,,,,,,,,,,,,,,,,,,,,
,,,,,,,,,,,,,,,,,,,,,,,,,,,,,,,,,,,,,,,,,,,5f1a3c1d94d028134ad46340,5ff3a3e383f6af98fc097e41,2021-01-05_01h25.37.880,Colour_Similarity_Experiment_v1,2020.1.2,Win32,60,5ff3a352adaa099f7659f8cc,,,,,,,,,,,,,,,,,,,,FF,,,,,,,,2,1.23573,,,,,,,,,,,,,,,,,,,,,,,,,,,,1,-112,-60,1,0,0,response5disk,7,17,2,-13,1,0,0,rectangle,2,-13,1,0,0,,4,0,0.000585,2,-13,1,0,0,0,16,16,137,1,,,,,,,,,,,,,,,,,,,,,
,,,,,,,,,,,,,,,,,,,,,,,,,,,,,,,,,,,,,,,,,,,5f1a3c1d94d028134ad46340,5ff3a3e383f6af98fc097e41,2021-01-05_01h25.37.880,Colour_Similarity_Experiment_v1,2020.1.2,Win32,60,5ff3a352adaa099f7659f8cc,,,,,,,,,,,,,,,,,,,,FF,,,,,,,,6,2.184105,,,,,,,,,,,,,,,,,,,,,,,,,,,,5,102,41,1,0,0,response1disk,1,18,1,-6,1,0,0,rectangle,1,-6,1,0,0,,5,0,0.00066,1,-6,1,0,0,0,17,17,131,1,,,,,,,,,,,,,,,,,,,,,
,,,,,,,,,,,,,,,,,,,,,,,,,,,,,,,,,,,,,,,,,,,5f1a3c1d94d028134ad46340,5ff3a3e383f6af98fc097e41,2021-01-05_01h25.37.880,Colour_Similarity_Experiment_v1,2020.1.2,Win32,60,5ff3a352adaa099f7659f8cc,,,,,,,,,,,,,,,,,,,,PF,,,,,,,,6,1.32358,,,,,,,,,,,,,,,,,,,,,,,,,,,,2,102,61,1,0,0,response1disk,6,19,1,2,1,0,0,rectangle,1,2,1,0,0,,6,0,0.000905,1,2,1,0,0,0,18,18,113,1,,,,,,,,,,,,,,,,,,,,,
,,,,,,,,,,,,,,,,,,,,,,,,,,,,,,,,,,,,,,,,,,,5f1a3c1d94d028134ad46340,5ff3a3e383f6af98fc097e41,2021-01-05_01h25.37.880,Colour_Similarity_Experiment_v1,2020.1.2,Win32,60,5ff3a352adaa099f7659f8cc,,,,,,,,,,,,,,,,,,,,FF,,,,,,,,7,2.28513,,,,,,,,,,,,,,,,,,,,,,,,,,,,7,42,70,1,0,0,response1disk,4,20,-2,-6,1,0,0,rectangle,-2,-6,1,0,0,,3,0,0.000505,-2,-6,1,0,0,0,19,19,158,1,,,,,,,,,,,,,,,,,,,,,
,,,,,,,,,,,,,,,,,,,,,,,,,,,,,,,,,,,,,,,,,,,5f1a3c1d94d028134ad46340,5ff3a3e383f6af98fc097e41,2021-01-05_01h25.37.880,Colour_Similarity_Experiment_v1,2020.1.2,Win32,60,5ff3a352adaa099f7659f8cc,,,,,,,,,,,,,,,,,,,,FF,,,,,,,,7,1.169715,,,,,,,,,,,,,,,,,,,,,,,,,,,,1,64,116,1,0,0,response1disk,6,21,8,0,1,0,0,rectangle,8,0,1,0,0,,1,0,0.00062,8,0,1,0,0,0,20,20,58,1,,,,,,,,,,,,,,,,,,,,,
,,,,,,,,,,,,,,,,,,,,,,,,,,,,,,,,,,,,,,,,,,,5f1a3c1d94d028134ad46340,5ff3a3e383f6af98fc097e41,2021-01-05_01h25.37.880,Colour_Similarity_Experiment_v1,2020.1.2,Win32,60,5ff3a352adaa099f7659f8cc,,,,,,,,,,,,,,,,,,,,PF,,,,,,,,7,0.95178,,,,,,,,,,,,,,,,,,,,,,,,,,,,3,41,109,1,0,0,response1disk,9,22,0,2,1,0,0,rectangle,0,2,1,0,0,,7,0,0.000545,0,2,1,0,0,0,21,21,79,1,,,,,,,,,,,,,,,,,,,,,
,,,,,,,,,,,,,,,,,,,,,,,,,,,,,,,,,,,,,,,,,,,5f1a3c1d94d028134ad46340,5ff3a3e383f6af98fc097e41,2021-01-05_01h25.37.880,Colour_Similarity_Experiment_v1,2020.1.2,Win32,60,5ff3a352adaa099f7659f8cc,,,,,,,,,,,,,,,,,,,,FF,,,,,,,,6,1.26843,,,,,,,,,,,,,,,,,,,,,,,,,,,,5,136,60,1,0,0,response1disk,2,23,27,-5,1,0,0,rectangle,81,-39,1,0,0,5,5,1,1.615955,-4,-11,1,0,0,0,22,22,55,1,response3disk_3,rectangle,,,,,,,,,,,,,,,,,,,
,,,,,,,,,,,,,,,,,,,,,,,,,,,,,,,,,,,,,,,,,,,5f1a3c1d94d028134ad46340,5ff3a3e383f6af98fc097e41,2021-01-05_01h25.37.880,Colour_Similarity_Experiment_v1,2020.1.2,Win32,60,5ff3a352adaa099f7659f8cc,,,,,,,,,,,,,,,,,,,,FF,,,,,,,,7,1.33213,,,,,,,,,,,,,,,,,,,,,,,,,,,,8,61,84,1,0,0,response1disk,3,24,-8,-6,1,0,0,rectangle,-8,-6,1,0,0,5,2,0,0.00053,-8,-6,1,0,0,0,23,23,154,1,,,,,,,,,,,,,,,,,,,,,
,,,,,,,,,,,,,,,,,,,,,,,,,,,,,,,,,,,,,,,,,,,5f1a3c1d94d028134ad46340,5ff3a3e383f6af98fc097e41,2021-01-05_01h25.37.880,Colour_Similarity_Experiment_v1,2020.1.2,Win32,60,5ff3a352adaa099f7659f8cc,,,,,,,,,,,,,,,,,,,,PF,,,,,,,,5,1.314075,,,,,,,,,,,,,,,,,,,,,,,,,,,,5,87,-78,1,0,0,response3disk,2,25,-8,-1,1,0,0,rectangle,-8,-1,1,0,0,5,6,0,0.00059,-8,-1,1,0,0,0,24,24,129,1,,,,,,,,,,,,,,,,,,,,,
,,,,,,,,,,,,,,,,,,,,,,,,,,,,,,,,,,,,,,,,,,,5f1a3c1d94d028134ad46340,5ff3a3e383f6af98fc097e41,2021-01-05_01h25.37.880,Colour_Similarity_Experiment_v1,2020.1.2,Win32,60,5ff3a352adaa099f7659f8cc,,,,,,,,,,,,,,,,,,,,FF,,,,,,,,3,1.209075,,,,,,,,,,,,,,,,,,,,,,,,,,,,3,-48,-96,1,0,0,response5disk,2,26,12,-6,1,0,0,rectangle,12,-6,1,0,0,5,2,0,0.000515,12,-6,1,0,0,0,25,25,93,1,,,,,,,,,,,,,,,,,,,,,
,,,,,,,,,,,,,,,,,,,,,,,,,,,,,,,,,,,,,,,,,,,5f1a3c1d94d028134ad46340,5ff3a3e383f6af98fc097e41,2021-01-05_01h25.37.880,Colour_Similarity_Experiment_v1,2020.1.2,Win32,60,5ff3a352adaa099f7659f8cc,,,,,,,,,,,,,,,,,,,,PF,,,,,,,,7,1.218665,,,,,,,,,,,,,,,,,,,,,,,,,,,,1,59,102,1,0,0,response1disk,4,27,8,-8,1,0,0,rectangle,8,-8,1,0,0,5,4,0,0.000575,8,-8,1,0,0,0,26,26,139,1,,,,,,,,,,,,,,,,,,,,,
,,,,,,,,,,,,,,,,,,,,,,,,,,,,,,,,,,,,,,,,,,,5f1a3c1d94d028134ad46340,5ff3a3e383f6af98fc097e41,2021-01-05_01h25.37.880,Colour_Similarity_Experiment_v1,2020.1.2,Win32,60,5ff3a352adaa099f7659f8cc,,,,,,,,,,,,,,,,,,,,FF,,,,,,,,7,0.945445,,,,,,,,,,,,,,,,,,,,,,,,,,,,9,63,94,1,0,0,response1disk,2,28,2,-9,1,0,0,rectangle,119,52,1,0,0,6,6,1,2.547965,-13,-2,1,0,0,0,27,27,11,1,response1disk_3,rectangle,,,,,,,,,,,,,,,,,,,
,,,,,,,,,,,,,,,,,,,,,,,,,,,,,,,,,,,,,,,,,,,5f1a3c1d94d028134ad46340,5ff3a3e383f6af98fc097e41,2021-01-05_01h25.37.880,Colour_Similarity_Experiment_v1,2020.1.2,Win32,60,5ff3a352adaa099f7659f8cc,,,,,,,,,,,,,,,,,,,,FF,,,,,,,,4,2.071605,,,,,,,,,,,,,,,,,,,,,,,,,,,,5,51,-90,1,0,0,response3disk,7,29,10,-7,1,0,0,rectangle,10,-7,1,0,0,6,4,0,0.001675,10,-7,1,0,0,0,28,28,7,1,,,,,,,,,,,,,,,,,,,,,
,,,,,,,,,,,,,,,,,,,,,,,,,,,,,,,,,,,,,,,,,,,5f1a3c1d94d028134ad46340,5ff3a3e383f6af98fc097e41,2021-01-05_01h25.37.880,Colour_Similarity_Experiment_v1,2020.1.2,Win32,60,5ff3a352adaa099f7659f8cc,,,,,,,,,,,,,,,,,,,,FF,,,,,,,,7,0.99687,,,,,,,,,,,,,,,,,,,,,,,,,,,,8,46,77,1,0,0,response1disk,5,30,2,2,1,0,0,rectangle,2,2,1,0,0,6,0,0,0.00076,2,2,1,0,0,0,29,29,152,1,,,,,,,,,,,,,,,,,,,,,
,,,,,,,,,,,,,,,,,,,,,,,,,,,,,,,,,,,,,,,,,,,5f1a3c1d94d028134ad46340,5ff3a3e383f6af98fc097e41,2021-01-05_01h25.37.880,Colour_Similarity_Experiment_v1,2020.1.2,Win32,60,5ff3a352adaa099f7659f8cc,,,,,,,,,,,,,,,,,,,,FF,,,,,,,,7,1.134095,,,,,,,,,,,,,,,,,,,,,,,,,,,,9,56,82,1,0,0,response1disk,5,31,-6,-11,1,0,0,rectangle,-6,-11,1,0,0,6,5,0,0.000665,-6,-11,1,0,0,0,30,30,128,1,,,,,,,,,,,,,,,,,,,,,
,,,,,,,,,,,,,,,,,,,,,,,,,,,,,,,,,,,,,,,,,,,5f1a3c1d94d028134ad46340,5ff3a3e383f6af98fc097e41,2021-01-05_01h25.37.880,Colour_Similarity_Experiment_v1,2020.1.2,Win32,60,5ff3a352adaa099f7659f8cc,,,,,,,,,,,,,,,,,,,,PF,,,,,,,,2,1.458375,,,,,,,,,,,,,,,,,,,,,,,,,,,,7,-67,-38,1,0,0,response5disk,6,32,4,1,1,0,0,rectangle,4,1,1,0,0,6,5,0,0.0005,4,1,1,0,0,0,31,31,29,1,,,,,,,,,,,,,,,,,,,,,
,,,,,,,,,,,,,,,,,,,,,,,,,,,,,,,,,,,,,,,,,,,5f1a3c1d94d028134ad46340,5ff3a3e383f6af98fc097e41,2021-01-05_01h25.37.880,Colour_Similarity_Experiment_v1,2020.1.2,Win32,60,5ff3a352adaa099f7659f8cc,,,,,,,,,,,,,,,,,,,,PF,,,,,,,,7,1.026315,,,,,,,,,,,,,,,,,,,,,,,,,,,,5,63,100,1,0,0,response1disk,1,33,3,10,1,0,0,rectangle,47,91,1,0,0,7,7,1,1.58884,-2,-9,1,0,0,0,32,32,159,1,response1disk_3,rectangle,,,,,,,,,,,,,,,,,,,
,,,,,,,,,,,,,,,,,,,,,,,,,,,,,,,,,,,,,,,,,,,5f1a3c1d94d028134ad46340,5ff3a3e383f6af98fc097e41,2021-01-05_01h25.37.880,Colour_Similarity_Experiment_v1,2020.1.2,Win32,60,5ff3a352adaa099f7659f8cc,,,,,,,,,,,,,,,,,,,,FF,,,,,,,,2,1.63435,,,,,,,,,,,,,,,,,,,,,,,,,,,,8,-90,-41,1,0,0,response5disk,9,34,4,-3,1,0,0,rectangle,4,-3,1,0,0,7,4,0,0.000705,4,-3,1,0,0,0,33,33,105,1,,,,,,,,,,,,,,,,,,,,,
,,,,,,,,,,,,,,,,,,,,,,,,,,,,,,,,,,,,,,,,,,,5f1a3c1d94d028134ad46340,5ff3a3e383f6af98fc097e41,2021-01-05_01h25.37.880,Colour_Similarity_Experiment_v1,2020.1.2,Win32,60,5ff3a352adaa099f7659f8cc,,,,,,,,,,,,,,,,,,,,FF,,,,,,,,3,1.45302,,,,,,,,,,,,,,,,,,,,,,,,,,,,9,-35,-89,1,0,0,response5disk,1,35,0,0,1,0,0,rectangle,0,0,1,0,0,7,1,0,0.00053,0,0,1,0,0,0,34,34,111,1,,,,,,,,,,,,,,,,,,,,,
,,,,,,,,,,,,,,,,,,,,,,,,,,,,,,,,,,,,,,,,,,,5f1a3c1d94d028134ad46340,5ff3a3e383f6af98fc097e41,2021-01-05_01h25.37.880,Colour_Similarity_Experiment_v1,2020.1.2,Win32,60,5ff3a352adaa099f7659f8cc,,,,,,,,,,,,,,,,,,,,FF,,,,,,,,4,1.544035,,,,,,,,,,,,,,,,,,,,,,,,,,,,3,69,-110,1,0,0,response3disk,9,36,13,0,1,0,0,rectangle,13,0,1,0,0,7,7,0,0.000505,13,0,1,0,0,0,35,35,143,1,,,,,,,,,,,,,,,,,,,,,
,,,,,,,,,,,,,,,,,,,,,,,,,,,,,,,,,,,,,,,,,,,5f1a3c1d94d028134ad46340,5ff3a3e383f6af98fc097e41,2021-01-05_01h25.37.880,Colour_Similarity_Experiment_v1,2020.1.2,Win32,60,5ff3a352adaa099f7659f8cc,,,,,,,,,,,,,,,,,,,,PF,,,,,,,,5,1.55908,,,,,,,,,,,,,,,,,,,,,,,,,,,,3,116,-39,1,0,0,response3disk,6,37,0,8,1,0,0,rectangle,0,8,1,0,0,7,5,0,0.000595,0,8,1,0,0,0,36,36,47,1,,,,,,,,,,,,,,,,,,,,,
,,,,,,,,,,,,,,,,,,,,,,,,,,,,,,,,,,,,,,,,,,,5f1a3c1d94d028134ad46340,5ff3a3e383f6af98fc097e41,2021-01-05_01h25.37.880,Colour_Similarity_Experiment_v1,2020.1.2,Win32,60,5ff3a352adaa099f7659f8cc,,,,,,,,,,,,,,,,,,,,PF,,,,,,,,7,1.069705,,,,,,,,,,,,,,,,,,,,,,,,,,,,8,51,113,1,0,0,response1disk,3,38,-5,-5,1,0,0,rectangle,-5,-5,1,0,0,7,5,0,0.000955,-5,-5,1,0,0,0,37,37,71,1,,,,,,,,,,,,,,,,,,,,,
,,,,,,,,,,,,,,,,,,,,,,,,,,,,,,,,,,,,,,,,,,,5f1a3c1d94d028134ad46340,5ff3a3e383f6af98fc097e41,2021-01-05_01h25.37.880,Colour_Similarity_Experiment_v1,2020.1.2,Win32,60,5ff3a352adaa099f7659f8cc,,,,,,,,,,,,,,,,,,,,PF,,,,,,,,1,1.076945,,,,,,,,,,,,,,,,,,,,,,,,,,,,3,-80,48,1,0,0,response7disk,4,39,-4,7,1,0,0,rectangle,-4,7,1,0,0,7,3,0,0.00127,-4,7,1,0,0,0,38,38,30,1,,,,,,,,,,,,,,,,,,,,,
,,,,,,,,,,,,,,,,,,,,,,,,,,,,,,,,,,,,,,,,,,,5f1a3c1d94d028134ad46340,5ff3a3e383f6af98fc097e41,2021-01-05_01h25.37.880,Colour_Similarity_Experiment_v1,2020.1.2,Win32,60,5ff3a352adaa099f7659f8cc,,,,,,,,,,,,,,,,,,,,PF,,,,,,,,6,1.234975,,,,,,,,,,,,,,,,,,,,,,,,,,,,8,117,56,1,0,0,response1disk,6,40,2,12,1,0,0,rectangle,-44,-88,1,0,0,3,3,1,2.162275,1,-3,1,0,0,0,39,39,161,1,response5disk_3,rectangle,,,,,,,,,,,,,,,,,,,
,,,,,,,,,,,,,,,,,,,,,,,,,,,,,,,,,,,,,,,,,,,5f1a3c1d94d028134ad46340,5ff3a3e383f6af98fc097e41,2021-01-05_01h25.37.880,Colour_Similarity_Experiment_v1,2020.1.2,Win32,60,5ff3a352adaa099f7659f8cc,,,,,,,,,,,,,,,,,,,,PF,,,,,,,,1,1.375525,,,,,,,,,,,,,,,,,,,,,,,,,,,,2,-86,48,1,0,0,response7disk,3,41,11,-13,1,0,0,rectangle,11,-13,1,0,0,3,0,0,0.000705,11,-13,1,0,0,0,40,40,69,1,,,,,,,,,,,,,,,,,,,,,
,,,,,,,,,,,,,,,,,,,,,,,,,,,,,,,,,,,,,,,,,,,5f1a3c1d94d028134ad46340,5ff3a3e383f6af98fc097e41,2021-01-05_01h25.37.880,Colour_Similarity_Experiment_v1,2020.1.2,Win32,60,5ff3a352adaa099f7659f8cc,,,,,,,,,,,,,,,,,,,,FF,,,,,,,,6,1.19367,,,,,,,,,,,,,,,,,,,,,,,,,,,,8,92,49,1,0,0,response1disk,6,42,-3,-3,1,0,0,rectangle,-3,-3,1,0,0,3,2,0,0.00054,-3,-3,1,0,0,0,41,41,37,1,,,,,,,,,,,,,,,,,,,,,
,,,,,,,,,,,,,,,,,,,,,,,,,,,,,,,,,,,,,,,,,,,5f1a3c1d94d028134ad46340,5ff3a3e383f6af98fc097e41,2021-01-05_01h25.37.880,Colour_Similarity_Experiment_v1,2020.1.2,Win32,60,5ff3a352adaa099f7659f8cc,,,,,,,,,,,,,,,,,,,,FF,,,,,,,,7,1.20038,,,,,,,,,,,,,,,,,,,,,,,,,,,,2,33,102,1,0,0,response1disk,4,43,-5,-19,1,0,0,rectangle,-5,-19,1,0,0,3,5,0,0.00057,-5,-19,1,0,0,0,42,42,145,1,,,,,,,,,,,,,,,,,,,,,
,,,,,,,,,,,,,,,,,,,,,,,,,,,,,,,,,,,,,,,,,,,5f1a3c1d94d028134ad46340,5ff3a3e383f6af98fc097e41,2021-01-05_01h25.37.880,Colour_Similarity_Experiment_v1,2020.1.2,Win32,60,5ff3a352adaa099f7659f8cc,,,,,,,,,,,,,,,,,,,,PF,,,,,,,,7,2.39836,,,,,,,,,,,,,,,,,,,,,,,,,,,,4,52,104,1,0,0,response1disk,1,44,1,-2,1,0,0,rectangle,1,-2,1,0,0,3,4,0,0.00052,1,-2,1,0,0,0,43,43,115,1,,,,,,,,,,,,,,,,,,,,,
,,,,,,,,,,,,,,,,,,,,,,,,,,,,,,,,,,,,,,,,,,,5f1a3c1d94d028134ad46340,5ff3a3e383f6af98fc097e41,2021-01-05_01h25.37.880,Colour_Similarity_Experiment_v1,2020.1.2,Win32,60,5ff3a352adaa099f7659f8cc,,,,,,,,,,,,,,,,,,,,PF,,,,,,,,6,1.653795,,,,,,,,,,,,,,,,,,,,,,,,,,,,9,105,34,1,0,0,response1disk,8,45,-6,3,1,0,0,rectangle,-6,3,1,0,0,3,5,0,0.000555,-6,3,1,0,0,0,44,44,67,1,,,,,,,,,,,,,,,,,,,,,
,,,,,,,,,,,,,,,,,,,,,,,,,,,,,,,,,,,,,,,,,,,5f1a3c1d94d028134ad46340,5ff3a3e383f6af98fc097e41,2021-01-05_01h25.37.880,Colour_Similarity_Experiment_v1,2020.1.2,Win32,60,5ff3a352adaa099f7659f8cc,,,,,,,,,,,,,,,,,,,,PF,,,,,,,,6,11.185105,,,,,,,,,,,,,,,,,,,,,,,,,,,,2,102,36,1,0,0,response1disk,9,46,20,10,1,0,0,rectangle,20,10,1,0,0,3,1,0,0.00071,20,10,1,0,0,0,45,45,39,1,,,,,,,,,,,,,,,,,,,,,
,,,,,,,,,,,,,,,,,,,,,,,,,,,,,,,,,,,,,,,,,,,5f1a3c1d94d028134ad46340,5ff3a3e383f6af98fc097e41,2021-01-05_01h25.37.880,Colour_Similarity_Experiment_v1,2020.1.2,Win32,60,5ff3a352adaa099f7659f8cc,,,,,,,,,,,,,,,,,,,,FF,,,,,,,,3,1.857395,,,,,,,,,,,,,,,,,,,,,,,,,,,,7,-36,-119,1,0,0,response5disk,8,47,-4,-1,1,0,0,rectangle,-54,-120,1,0,0,3,3,1,2.354655,-29,-5,1,0,0,0,46,46,97,1,response5disk_3,rectangle,,,,,,,,,,,,,,,,,,,
,,,,,,,,,,,,,,,,,,,,,,,,,,,,,,,,,,,,,,,,,,,5f1a3c1d94d028134ad46340,5ff3a3e383f6af98fc097e41,2021-01-05_01h25.37.880,Colour_Similarity_Experiment_v1,2020.1.2,Win32,60,5ff3a352adaa099f7659f8cc,,,,,,,,,,,,,,,,,,,,PF,,,,,,,,2,1.11875,,,,,,,,,,,,,,,,,,,,,,,,,,,,8,-89,-52,1,0,0,response5disk,9,48,7,-10,1,0,0,rectangle,7,-10,1,0,0,3,3,0,0.000485,7,-10,1,0,0,0,47,47,42,1,,,,,,,,,,,,,,,,,,,,,
,,,,,,,,,,,,,,,,,,,,,,,,,,,,,,,,,,,,,,,,,,,5f1a3c1d94d028134ad46340,5ff3a3e383f6af98fc097e41,2021-01-05_01h25.37.880,Colour_Similarity_Experiment_v1,2020.1.2,Win32,60,5ff3a352adaa099f7659f8cc,,,,,,,,,,,,,,,,,,,,PF,,,,,,,,5,1.0002,,,,,,,,,,,,,,,,,,,,,,,,,,,,8,103,-62,1,0,0,response3disk,5,49,10,-9,1,0,0,rectangle,10,-9,1,0,0,3,2,0,0.000815,10,-9,1,0,0,0,48,48,98,1,,,,,,,,,,,,,,,,,,,,,
,,,,,,,,,,,,,,,,,,,,,,,,,,,,,,,,,,,,,,,,,,,5f1a3c1d94d028134ad46340,5ff3a3e383f6af98fc097e41,2021-01-05_01h25.37.880,Colour_Similarity_Experiment_v1,2020.1.2,Win32,60,5ff3a352adaa099f7659f8cc,,,,,,,,,,,,,,,,,,,,FF,,,,,,,,7,1.005515,,,,,,,,,,,,,,,,,,,,,,,,,,,,9,34,91,1,0,0,response1disk,3,50,-6,-5,1,0,0,rectangle,-6,-5,1,0,0,3,0,0,0.00052,-6,-5,1,0,0,0,49,49,141,1,,,,,,,,,,,,,,,,,,,,,
,,,,,,,,,,,,,,,,,,,,,,,,,,,,,,,,,,,,,,,,,,,5f1a3c1d94d028134ad46340,5ff3a3e383f6af98fc097e41,2021-01-05_01h25.37.880,Colour_Similarity_Experiment_v1,2020.1.2,Win32,60,5ff3a352adaa099f7659f8cc,,,,,,,,,,,,,,,,,,,,PF,,,,,,,,7,1.03461,,,,,,,,,,,,,,,,,,,,,,,,,,,,4,40,96,1,0,0,response1disk,7,51,-8,-8,1,0,0,rectangle,-8,-8,1,0,0,3,7,0,0.00052,-8,-8,1,0,0,0,50,50,38,1,,,,,,,,,,,,,,,,,,,,,
,,,,,,,,,,,,,,,,,,,,,,,,,,,,,,,,,,,,,,,,,,,5f1a3c1d94d028134ad46340,5ff3a3e383f6af98fc097e41,2021-01-05_01h25.37.880,Colour_Similarity_Experiment_v1,2020.1.2,Win32,60,5ff3a352adaa099f7659f8cc,,,,,,,,,,,,,,,,,,,,FF,,,,,,,,2,1.79133,,,,,,,,,,,,,,,,,,,,,,,,,,,,6,-77,-21,1,0,0,response5disk,7,52,-19,-5,1,0,0,rectangle,-19,-5,1,0,0,3,1,0,0.00055,-19,-5,1,0,0,0,51,51,18,1,,,,,,,,,,,,,,,,,,,,,
,,,,,,,,,,,,,,,,,,,,,,,,,,,,,,,,,,,,,,,,,,,5f1a3c1d94d028134ad46340,5ff3a3e383f6af98fc097e41,2021-01-05_01h25.37.880,Colour_Similarity_Experiment_v1,2020.1.2,Win32,60,5ff3a352adaa099f7659f8cc,,,,,,,,,,,,,,,,,,,,FF,,,,,,,,6,1.209485,,,,,,,,,,,,,,,,,,,,,,,,,,,,2,114,43,1,0,0,response1disk,8,53,-2,-7,1,0,0,rectangle,-2,-7,1,0,0,3,4,0,0.00064,-2,-7,1,0,0,0,52,52,62,1,,,,,,,,,,,,,,,,,,,,,
,,,,,,,,,,,,,,,,,,,,,,,,,,,,,,,,,,,,,,,,,,,5f1a3c1d94d028134ad46340,5ff3a3e383f6af98fc097e41,2021-01-05_01h25.37.880,Colour_Similarity_Experiment_v1,2020.1.2,Win32,60,5ff3a352adaa099f7659f8cc,,,,,,,,,,,,,,,,,,,,FF,,,,,,,,3,1.651835,,,,,,,,,,,,,,,,,,,,,,,,,,,,6,-42,-100,1,0,0,response5disk,5,54,21,-11,1,0,0,rectangle,21,-11,1,0,0,3,1,0,0.000515,21,-11,1,0,0,0,53,53,126,1,,,,,,,,,,,,,,,,,,,,,
,,,,,,,,,,,,,,,,,,,,,,,,,,,,,,,,,,,,,,,,,,,5f1a3c1d94d028134ad46340,5ff3a3e383f6af98fc097e41,2021-01-05_01h25.37.880,Colour_Similarity_Experiment_v1,2020.1.2,Win32,60,5ff3a352adaa099f7659f8cc,,,,,,,,,,,,,,,,,,,,FF,,,,,,,,7,1.114635,,,,,,,,,,,,,,,,,,,,,,,,,,,,5,35,83,1,0,0,response1disk,8,55,-13,-10,1,0,0,rectangle,-13,-10,1,0,0,3,6,0,0.00057,-13,-10,1,0,0,0,54,54,16,1,,,,,,,,,,,,,,,,,,,,,
,,,,,,,,,,,,,,,,,,,,,,,,,,,,,,,,,,,,,,,,,,,5f1a3c1d94d028134ad46340,5ff3a3e383f6af98fc097e41,2021-01-05_01h25.37.880,Colour_Similarity_Experiment_v1,2020.1.2,Win32,60,5ff3a352adaa099f7659f8cc,,,,,,,,,,,,,,,,,,,,PF,,,,,,,,7,1.157255,,,,,,,,,,,,,,,,,,,,,,,,,,,,2,47,86,1,0,0,response1disk,7,56,3,-10,1,0,0,rectangle,3,-10,1,0,0,3,0,0,0.000565,3,-10,1,0,0,0,55,55,107,1,,,,,,,,,,,,,,,,,,,,,
,,,,,,,,,,,,,,,,,,,,,,,,,,,,,,,,,,,,,,,,,,,5f1a3c1d94d028134ad46340,5ff3a3e383f6af98fc097e41,2021-01-05_01h25.37.880,Colour_Similarity_Experiment_v1,2020.1.2,Win32,60,5ff3a352adaa099f7659f8cc,,,,,,,,,,,,,,,,,,,,PF,,,,,,,,7,1.25915,,,,,,,,,,,,,,,,,,,,,,,,,,,,8,47,87,1,0,0,response1disk,1,57,5,1,1,0,0,rectangle,5,1,1,0,0,3,1,0,0.00052,5,1,1,0,0,0,56,56,57,1,,,,,,,,,,,,,,,,,,,,,
,,,,,,,,,,,,,,,,,,,,,,,,,,,,,,,,,,,,,,,,,,,5f1a3c1d94d028134ad46340,5ff3a3e383f6af98fc097e41,2021-01-05_01h25.37.880,Colour_Similarity_Experiment_v1,2020.1.2,Win32,60,5ff3a352adaa099f7659f8cc,,,,,,,,,,,,,,,,,,,,FF,,,,,,,,7,0.71644,,,,,,,,,,,,,,,,,,,,,,,,,,,,9,57,89,1,0,0,response1disk,4,58,10,-1,1,0,0,rectangle,10,-1,1,0,0,3,4,0,0.000505,10,-1,1,0,0,0,57,57,60,1,,,,,,,,,,,,,,,,,,,,,
,,,,,,,,,,,,,,,,,,,,,,,,,,,,,,,,,,,,,,,,,,,5f1a3c1d94d028134ad46340,5ff3a3e383f6af98fc097e41,2021-01-05_01h25.37.880,Colour_Similarity_Experiment_v1,2020.1.2,Win32,60,5ff3a352adaa099f7659f8cc,,,,,,,,,,,,,,,,,,,,FF,,,,,,,,4,2.400835,,,,,,,,,,,,,,,,,,,,,,,,,,,,2,63,-87,1,0,0,response3disk,3,59,-2,0,1,0,0,rectangle,-108,-59,1,0,0,3,2,1,1.83638,1,-4,1,0,0,0,58,58,104,1,response5disk_3,rectangle,,,,,,,,,,,,,,,,,,,
,,,,,,,,,,,,,,,,,,,,,,,,,,,,,,,,,,,,,,,,,,,5f1a3c1d94d028134ad46340,5ff3a3e383f6af98fc097e41,2021-01-05_01h25.37.880,Colour_Similarity_Experiment_v1,2020.1.2,Win32,60,5ff3a352adaa099f7659f8cc,,,,,,,,,,,,,,,,,,,,FF,,,,,,,,0,1.12654,,,,,,,,,,,,,,,,,,,,,,,,,,,,5,-57,88,1,0,0,response7disk,5,60,-11,-6,1,0,0,rectangle,-11,-6,1,0,0,3,2,0,0.000515,-11,-6,1,0,0,0,59,59,19,1,,,,,,,,,,,,,,,,,,,,,
,,,,,,,,,,,,,,,,,,,,,,,,,,,,,,,,,,,,,,,,,,,5f1a3c1d94d028134ad46340,5ff3a3e383f6af98fc097e41,2021-01-05_01h25.37.880,Colour_Similarity_Experiment_v1,2020.1.2,Win32,60,5ff3a352adaa099f7659f8cc,,,,,,,,,,,,,,,,,,,,PF,,,,,,,,1,1.142645,,,,,,,,,,,,,,,,,,,,,,,,,,,,3,-91,32,1,0,0,response7disk,5,61,3,-8,1,0,0,rectangle,3,-8,1,0,0,3,3,0,0.00085,3,-8,1,0,0,0,60,60,66,1,,,,,,,,,,,,,,,,,,,,,
,,,,,,,,,,,,,,,,,,,,,,,,,,,,,,,,,,,,,,,,,,,5f1a3c1d94d028134ad46340,5ff3a3e383f6af98fc097e41,2021-01-05_01h25.37.880,Colour_Similarity_Experiment_v1,2020.1.2,Win32,60,5ff3a352adaa099f7659f8cc,,,,,,,,,,,,,,,,,,,,PF,,,,,,,,6,1.3605,,,,,,,,,,,,,,,,,,,,,,,,,,,,6,66,23,1,0,0,response1disk,3,62,-9,-3,1,0,0,rectangle,-9,-3,1,0,0,3,3,0,0.000595,-9,-3,1,0,0,0,61,61,26,1,,,,,,,,,,,,,,,,,,,,,
,,,,,,,,,,,,,,,,,,,,,,,,,,,,,,,,,,,,,,,,,,,5f1a3c1d94d028134ad46340,5ff3a3e383f6af98fc097e41,2021-01-05_01h25.37.880,Colour_Similarity_Experiment_v1,2020.1.2,Win32,60,5ff3a352adaa099f7659f8cc,,,,,,,,,,,,,,,,,,,,PF,,,,,,,,7,4.86317,,,,,,,,,,,,,,,,,,,,,,,,,,,,8,66,93,1,0,0,response1disk,4,63,-11,-8,1,0,0,rectangle,-11,-8,1,0,0,3,2,0,0.00133,-11,-8,1,0,0,0,62,62,78,1,,,,,,,,,,,,,,,,,,,,,
,,,,,,,,,,,,,,,,,,,,,,,,,,,,,,,,,,,,,,,,,,,5f1a3c1d94d028134ad46340,5ff3a3e383f6af98fc097e41,2021-01-05_01h25.37.880,Colour_Similarity_Experiment_v1,2020.1.2,Win32,60,5ff3a352adaa099f7659f8cc,,,,,,,,,,,,,,,,,,,,FF,,,,,,,,7,0.988965,,,,,,,,,,,,,,,,,,,,,,,,,,,,9,57,80,1,0,0,response1disk,6,64,-7,-5,1,0,0,rectangle,-7,-5,1,0,0,3,5,0,0.00053,-7,-5,1,0,0,0,63,63,117,1,,,,,,,,,,,,,,,,,,,,,
,,,,,,,,,,,,,,,,,,,,,,,,,,,,,,,,,,,,,,,,,,,5f1a3c1d94d028134ad46340,5ff3a3e383f6af98fc097e41,2021-01-05_01h25.37.880,Colour_Similarity_Experiment_v1,2020.1.2,Win32,60,5ff3a352adaa099f7659f8cc,,,,,,,,,,,,,,,,,,,,PF,,,,,,,,6,0.809085,,,,,,,,,,,,,,,,,,,,,,,,,,,,9,128,52,1,0,0,response1disk,6,65,-1,4,1,0,0,rectangle,-1,4,1,0,0,3,0,0,0.00058,-1,4,1,0,0,0,64,64,148,1,,,,,,,,,,,,,,,,,,,,,
,,,,,,,,,,,,,,,,,,,,,,,,,,,,,,,,,,,,,,,,,,,5f1a3c1d94d028134ad46340,5ff3a3e383f6af98fc097e41,2021-01-05_01h25.37.880,Colour_Similarity_Experiment_v1,2020.1.2,Win32,60,5ff3a352adaa099f7659f8cc,,,,,,,,,,,,,,,,,,,,FF,,,,,,,,4,1.29678,,,,,,,,,,,,,,,,,,,,,,,,,,,,6,26,-74,1,0,0,response3disk,3,66,-11,6,1,0,0,rectangle,-11,6,1,0,0,3,0,0,0.000615,-11,6,1,0,0,0,65,65,21,1,,,,,,,,,,,,,,,,,,,,,
,,,,,,,,,,,,,,,,,,,,,,,,,,,,,,,,,,,,,,,,,,,5f1a3c1d94d028134ad46340,5ff3a3e383f6af98fc097e41,2021-01-05_01h25.37.880,Colour_Similarity_Experiment_v1,2020.1.2,Win32,60,5ff3a352adaa099f7659f8cc,,,,,,,,,,,,,,,,,,,,FF,,,,,,,,7,1.150355,,,,,,,,,,,,,,,,,,,,,,,,,,,,1,54,86,1,0,0,response1disk,4,67,-2,-1,1,0,0,rectangle,-2,-1,1,0,0,3,5,0,0.000495,-2,-1,1,0,0,0,66,66,135,1,,,,,,,,,,,,,,,,,,,,,
,,,,,,,,,,,,,,,,,,,,,,,,,,,,,,,,,,,,,,,,,,,5f1a3c1d94d028134ad46340,5ff3a3e383f6af98fc097e41,2021-01-05_01h25.37.880,Colour_Similarity_Experiment_v1,2020.1.2,Win32,60,5ff3a352adaa099f7659f8cc,,,,,,,,,,,,,,,,,,,,FF,,,,,,,,0,0.90471,,,,,,,,,,,,,,,,,,,,,,,,,,,,4,-64,91,1,0,0,response7disk,4,68,-30,8,1,0,0,rectangle,-30,8,1,0,0,3,6,0,0.00053,-30,8,1,0,0,0,67,67,84,1,,,,,,,,,,,,,,,,,,,,,
,,,,,,,,,,,,,,,,,,,,,,,,,,,,,,,,,,,,,,,,,,,5f1a3c1d94d028134ad46340,5ff3a3e383f6af98fc097e41,2021-01-05_01h25.37.880,Colour_Similarity_Experiment_v1,2020.1.2,Win32,60,5ff3a352adaa099f7659f8cc,,,,,,,,,,,,,,,,,,,,PF,,,,,,,,7,1.61299,,,,,,,,,,,,,,,,,,,,,,,,,,,,5,32,86,1,0,0,response1disk,8,69,5,-4,1,0,0,rectangle,5,-4,1,0,0,3,5,0,0.0005,5,-4,1,0,0,0,68,68,149,1,,,,,,,,,,,,,,,,,,,,,
,,,,,,,,,,,,,,,,,,,,,,,,,,,,,,,,,,,,,,,,,,,5f1a3c1d94d028134ad46340,5ff3a3e383f6af98fc097e41,2021-01-05_01h25.37.880,Colour_Similarity_Experiment_v1,2020.1.2,Win32,60,5ff3a352adaa099f7659f8cc,,,,,,,,,,,,,,,,,,,,PF,,,,,,,,7,0.87444,,,,,,,,,,,,,,,,,,,,,,,,,,,,2,39,92,1,0,0,response1disk,1,70,5,2,1,0,0,rectangle,5,2,1,0,0,3,4,0,0.000535,5,2,1,0,0,0,69,69,9,1,,,,,,,,,,,,,,,,,,,,,
,,,,,,,,,,,,,,,,,,,,,,,,,,,,,,,,,,,,,,,,,,,5f1a3c1d94d028134ad46340,5ff3a3e383f6af98fc097e41,2021-01-05_01h25.37.880,Colour_Similarity_Experiment_v1,2020.1.2,Win32,60,5ff3a352adaa099f7659f8cc,,,,,,,,,,,,,,,,,,,,PF,,,,,,,,7,0.68953,,,,,,,,,,,,,,,,,,,,,,,,,,,,3,53,100,1,0,0,response1disk,7,71,2,12,1,0,0,rectangle,2,12,1,0,0,3,2,0,0.000565,2,12,1,0,0,0,70,70,41,1,,,,,,,,,,,,,,,,,,,,,
,,,,,,,,,,,,,,,,,,,,,,,,,,,,,,,,,,,,,,,,,,,5f1a3c1d94d028134ad46340,5ff3a3e383f6af98fc097e41,2021-01-05_01h25.37.880,Colour_Similarity_Experiment_v1,2020.1.2,Win32,60,5ff3a352adaa099f7659f8cc,,,,,,,,,,,,,,,,,,,,FF,,,,,,,,7,0.69809,,,,,,,,,,,,,,,,,,,,,,,,,,,,9,61,91,1,0,0,response1disk,7,72,11,-1,1,0,0,rectangle,11,-1,1,0,0,3,3,0,0.00096,11,-1,1,0,0,0,71,71,100,1,,,,,,,,,,,,,,,,,,,,,
,,,,,,,,,,,,,,,,,,,,,,,,,,,,,,,,,,,,,,,,,,,5f1a3c1d94d028134ad46340,5ff3a3e383f6af98fc097e41,2021-01-05_01h25.37.880,Colour_Similarity_Experiment_v1,2020.1.2,Win32,60,5ff3a352adaa099f7659f8cc,,,,,,,,,,,,,,,,,,,,PF,,,,,,,,7,1.303395,,,,,,,,,,,,,,,,,,,,,,,,,,,,6,58,87,1,0,0,response1disk,1,73,4,6,1,0,0,rectangle,4,6,1,0,0,3,7,0,0.000515,4,6,1,0,0,0,72,72,46,1,,,,,,,,,,,,,,,,,,,,,
,,,,,,,,,,,,,,,,,,,,,,,,,,,,,,,,,,,,,,,,,,,5f1a3c1d94d028134ad46340,5ff3a3e383f6af98fc097e41,2021-01-05_01h25.37.880,Colour_Similarity_Experiment_v1,2020.1.2,Win32,60,5ff3a352adaa099f7659f8cc,,,,,,,,,,,,,,,,,,,,FF,,,,,,,,5,2.18779,,,,,,,,,,,,,,,,,,,,,,,,,,,,3,98,-33,1,0,0,response3disk,5,74,-22,3,1,0,0,rectangle,-22,3,1,0,0,3,3,0,0.0005,-22,3,1,0,0,0,73,73,101,1,,,,,,,,,,,,,,,,,,,,,
,,,,,,,,,,,,,,,,,,,,,,,,,,,,,,,,,,,,,,,,,,,5f1a3c1d94d028134ad46340,5ff3a3e383f6af98fc097e41,2021-01-05_01h25.37.880,Colour_Similarity_Experiment_v1,2020.1.2,Win32,60,5ff3a352adaa099f7659f8cc,,,,,,,,,,,,,,,,,,,,PF,,,,,,,,1,1.34812,,,,,,,,,,,,,,,,,,,,,,,,,,,,4,-58,39,1,0,0,response7disk,3,75,9,-10,1,0,0,rectangle,9,-10,1,0,0,3,4,0,0.0005,9,-10,1,0,0,0,74,74,89,1,,,,,,,,,,,,,,,,,,,,,
,,,,,,,,,,,,,,,,,,,,,,,,,,,,,,,,,,,,,,,,,,,5f1a3c1d94d028134ad46340,5ff3a3e383f6af98fc097e41,2021-01-05_01h25.37.880,Colour_Similarity_Experiment_v1,2020.1.2,Win32,60,5ff3a352adaa099f7659f8cc,,,,,,,,,,,,,,,,,,,,PF,,,,,,,,1,1.060605,,,,,,,,,,,,,,,,,,,,,,,,,,,,5,-75,38,1,0,0,response7disk,4,76,-4,1,1,0,0,rectangle,-4,1,1,0,0,3,6,0,0.000755,-4,1,1,0,0,0,75,75,54,1,,,,,,,,,,,,,,,,,,,,,
,,,,,,,,,,,,,,,,,,,,,,,,,,,,,,,,,,,,,,,,,,,5f1a3c1d94d028134ad46340,5ff3a3e383f6af98fc097e41,2021-01-05_01h25.37.880,Colour_Similarity_Experiment_v1,2020.1.2,Win32,60,5ff3a352adaa099f7659f8cc,,,,,,,,,,,,,,,,,,,,PF,,,,,,,,6,1.948795,,,,,,,,,,,,,,,,,,,,,,,,,,,,2,96,37,1,0,0,response1disk,4,77,-3,-9.5,1,0,0,rectangle,-3,-9.5,1,0,0,3,4,0,0.00223,-3,-9.5,1,0,0,0,76,76,127,1,,,,,,,,,,,,,,,,,,,,,
,,,,,,,,,,,,,,,,,,,,,,,,,,,,,,,,,,,,,,,,,,,5f1a3c1d94d028134ad46340,5ff3a3e383f6af98fc097e41,2021-01-05_01h25.37.880,Colour_Similarity_Experiment_v1,2020.1.2,Win32,60,5ff3a352adaa099f7659f8cc,,,,,,,,,,,,,,,,,,,,FF,,,,,,,,1,1.011335,,,,,,,,,,,,,,,,,,,,,,,,,,,,4,-112,28.5,1,0,0,response7disk,3,78,9,-0.5,1,0,0,rectangle,9,-0.5,1,0,0,3,6,0,0.000735,9,-0.5,1,0,0,0,77,77,77,1,,,,,,,,,,,,,,,,,,,,,
,,,,,,,,,,,,,,,,,,,,,,,,,,,,,,,,,,,,,,,,,,,5f1a3c1d94d028134ad46340,5ff3a3e383f6af98fc097e41,2021-01-05_01h25.37.880,Colour_Similarity_Experiment_v1,2020.1.2,Win32,60,5ff3a352adaa099f7659f8cc,,,,,,,,,,,,,,,,,,,,PF,,,,,,,,2,1.085635,,,,,,,,,,,,,,,,,,,,,,,,,,,,3,-90,-56.5,1,0,0,response5disk,2,79,-3,8.5,1,0,0,rectangle,53,-70.5,1,0,0,4,4,1,1.566115,11,-7.5,1,0,0,0,78,78,36,1,response3disk_3,rectangle,,,,,,,,,,,,,,,,,,,
,,,,,,,,,,,,,,,,,,,,,,,,,,,,,,,,,,,,,,,,,,,5f1a3c1d94d028134ad46340,5ff3a3e383f6af98fc097e41,2021-01-05_01h25.37.880,Colour_Similarity_Experiment_v1,2020.1.2,Win32,60,5ff3a352adaa099f7659f8cc,,,,,,,,,,,,,,,,,,,,PF,,,,,,,,6,1.52872,,,,,,,,,,,,,,,,,,,,,,,,,,,,1,98,40.5,1,0,0,response1disk,5,80,-17,-6.5,1,0,0,rectangle,-17,-6.5,1,0,0,4,3,0,0.000755,-17,-6.5,1,0,0,0,79,79,28,1,,,,,,,,,,,,,,,,,,,,,
,,,,,,,,,,,,,,,,,,,,,,,,,,,,,,,,,,,,,,,,,,,5f1a3c1d94d028134ad46340,5ff3a3e383f6af98fc097e41,2021-01-05_01h25.37.880,Colour_Similarity_Experiment_v1,2020.1.2,Win32,60,5ff3a352adaa099f7659f8cc,,,,,,,,,,,,,,,,,,,,FF,,,,,,,,2,2.17179,,,,,,,,,,,,,,,,,,,,,,,,,,,,7,-92,-51.5,1,0,0,response5disk,5,81,-18,-8.5,1,0,0,rectangle,-18,-8.5,1,0,0,4,5,0,0.00071,-18,-8.5,1,0,0,0,80,80,156,1,,,,,,,,,,,,,,,,,,,,,
,,,,,,,,,,,,,,,,,,,,,,,,,,,,,,,,,,,,,,,,,,,5f1a3c1d94d028134ad46340,5ff3a3e383f6af98fc097e41,2021-01-05_01h25.37.880,Colour_Similarity_Experiment_v1,2020.1.2,Win32,60,5ff3a352adaa099f7659f8cc,,,,,,,,,,,,,,,,,,,,FF,,,,,,,,2,1.227295,,,,,,,,,,,,,,,,,,,,,,,,,,,,4,-86,-38.5,1,0,0,response5disk,9,82,-1,-5.5,1,0,0,rectangle,-1,-5.5,1,0,0,4,3,0,0.000565,-1,-5.5,1,0,0,0,81,81,90,1,,,,,,,,,,,,,,,,,,,,,
,,,,,,,,,,,,,,,,,,,,,,,,,,,,,,,,,,,,,,,,,,,5f1a3c1d94d028134ad46340,5ff3a3e383f6af98fc097e41,2021-01-05_01h25.37.880,Colour_Similarity_Experiment_v1,2020.1.2,Win32,60,5ff3a352adaa099f7659f8cc,,,,,,,,,,,,,,,,,,,,FF,,,,,,,,0,1.19957,,,,,,,,,,,,,,,,,,,,,,,,,,,,2,-55,88.5,1,0,0,response7disk,2,83,-1,-5.5,1,0,0,rectangle,-1,-5.5,1,0,0,4,3,0,0.000675,-1,-5.5,1,0,0,0,82,82,142,1,,,,,,,,,,,,,,,,,,,,,
,,,,,,,,,,,,,,,,,,,,,,,,,,,,,,,,,,,,,,,,,,,5f1a3c1d94d028134ad46340,5ff3a3e383f6af98fc097e41,2021-01-05_01h25.37.880,Colour_Similarity_Experiment_v1,2020.1.2,Win32,60,5ff3a352adaa099f7659f8cc,,,,,,,,,,,,,,,,,,,,PF,,,,,,,,7,1.97171,,,,,,,,,,,,,,,,,,,,,,,,,,,,2,63,95.5,1,0,0,response1disk,5,84,3,-9.5,1,0,0,rectangle,3,-9.5,1,0,0,4,1,0,0.00066,3,-9.5,1,0,0,0,83,83,147,1,,,,,,,,,,,,,,,,,,,,,
,,,,,,,,,,,,,,,,,,,,,,,,,,,,,,,,,,,,,,,,,,,5f1a3c1d94d028134ad46340,5ff3a3e383f6af98fc097e41,2021-01-05_01h25.37.880,Colour_Similarity_Experiment_v1,2020.1.2,Win32,60,5ff3a352adaa099f7659f8cc,,,,,,,,,,,,,,,,,,,,FF,,,,,,,,3,1.304025,,,,,,,,,,,,,,,,,,,,,,,,,,,,5,-70,-76.5,1,0,0,response5disk,4,85,9,-0.5,1,0,0,rectangle,9,-0.5,1,0,0,4,4,0,0.000595,9,-0.5,1,0,0,0,84,84,8,1,,,,,,,,,,,,,,,,,,,,,
,,,,,,,,,,,,,,,,,,,,,,,,,,,,,,,,,,,,,,,,,,,5f1a3c1d94d028134ad46340,5ff3a3e383f6af98fc097e41,2021-01-05_01h25.37.880,Colour_Similarity_Experiment_v1,2020.1.2,Win32,60,5ff3a352adaa099f7659f8cc,,,,,,,,,,,,,,,,,,,,PF,,,,,,,,5,1.99189,,,,,,,,,,,,,,,,,,,,,,,,,,,,6,89,-35.5,1,0,0,response3disk,2,86,6,15.5,1,0,0,rectangle,6,15.5,1,0,0,4,6,0,0.000495,6,15.5,1,0,0,0,85,85,130,1,,,,,,,,,,,,,,,,,,,,,
,,,,,,,,,,,,,,,,,,,,,,,,,,,,,,,,,,,,,,,,,,,5f1a3c1d94d028134ad46340,5ff3a3e383f6af98fc097e41,2021-01-05_01h25.37.880,Colour_Similarity_Experiment_v1,2020.1.2,Win32,60,5ff3a352adaa099f7659f8cc,,,,,,,,,,,,,,,,,,,,FF,,,,,,,,6,0.946785,,,,,,,,,,,,,,,,,,,,,,,,,,,,1,128,66.5,1,0,0,response1disk,5,87,20,0.5,1,0,0,rectangle,20,0.5,1,0,0,4,5,0,0.000535,20,0.5,1,0,0,0,86,86,82,1,,,,,,,,,,,,,,,,,,,,,
,,,,,,,,,,,,,,,,,,,,,,,,,,,,,,,,,,,,,,,,,,,5f1a3c1d94d028134ad46340,5ff3a3e383f6af98fc097e41,2021-01-05_01h25.37.880,Colour_Similarity_Experiment_v1,2020.1.2,Win32,60,5ff3a352adaa099f7659f8cc,,,,,,,,,,,,,,,,,,,,PF,,,,,,,,7,0.74247,,,,,,,,,,,,,,,,,,,,,,,,,,,,3,49,94.5,1,0,0,response1disk,1,88,-1,-1.5,1,0,0,rectangle,-1,-1.5,1,0,0,4,5,0,0.00121,-1,-1.5,1,0,0,0,87,87,96,1,,,,,,,,,,,,,,,,,,,,,
,,,,,,,,,,,,,,,,,,,,,,,,,,,,,,,,,,,,,,,,,,,5f1a3c1d94d028134ad46340,5ff3a3e383f6af98fc097e41,2021-01-05_01h25.37.880,Colour_Similarity_Experiment_v1,2020.1.2,Win32,60,5ff3a352adaa099f7659f8cc,,,,,,,,,,,,,,,,,,,,PF,,,,,,,,0,0.941995,,,,,,,,,,,,,,,,,,,,,,,,,,,,1,-35,79.5,1,0,0,response7disk,1,89,-13,-5.5,1,0,0,rectangle,115,39.5,1,0,0,6,6,1,1.762505,11,-4.5,1,0,0,0,88,88,76,1,response1disk_3,rectangle,,,,,,,,,,,,,,,,,,,
,,,,,,,,,,,,,,,,,,,,,,,,,,,,,,,,,,,,,,,,,,,5f1a3c1d94d028134ad46340,5ff3a3e383f6af98fc097e41,2021-01-05_01h25.37.880,Colour_Similarity_Experiment_v1,2020.1.2,Win32,60,5ff3a352adaa099f7659f8cc,,,,,,,,,,,,,,,,,,,,PF,,,,,,,,1,1.321685,,,,,,,,,,,,,,,,,,,,,,,,,,,,7,-93,49.5,1,0,0,response7disk,9,90,-8,10.5,1,0,0,rectangle,-8,10.5,1,0,0,6,4,0,0.00063,-8,10.5,1,0,0,0,89,89,10,1,,,,,,,,,,,,,,,,,,,,,
,,,,,,,,,,,,,,,,,,,,,,,,,,,,,,,,,,,,,,,,,,,5f1a3c1d94d028134ad46340,5ff3a3e383f6af98fc097e41,2021-01-05_01h25.37.880,Colour_Similarity_Experiment_v1,2020.1.2,Win32,60,5ff3a352adaa099f7659f8cc,,,,,,,,,,,,,,,,,,,,PF,,,,,,,,0,0.90486,,,,,,,,,,,,,,,,,,,,,,,,,,,,9,-61,86.5,1,0,0,response7disk,9,91,-8,-3.5,1,0,0,rectangle,-8,-3.5,1,0,0,6,7,0,0.000485,-8,-3.5,1,0,0,0,90,90,106,1,,,,,,,,,,,,,,,,,,,,,
,,,,,,,,,,,,,,,,,,,,,,,,,,,,,,,,,,,,,,,,,,,5f1a3c1d94d028134ad46340,5ff3a3e383f6af98fc097e41,2021-01-05_01h25.37.880,Colour_Similarity_Experiment_v1,2020.1.2,Win32,60,5ff3a352adaa099f7659f8cc,,,,,,,,,,,,,,,,,,,,FF,,,,,,,,0,0.68724,,,,,,,,,,,,,,,,,,,,,,,,,,,,7,-44,92.5,1,0,0,response7disk,7,92,-11,3.5,1,0,0,rectangle,-11,3.5,1,0,0,6,4,0,0.00061,-11,3.5,1,0,0,0,91,91,34,1,,,,,,,,,,,,,,,,,,,,,
,,,,,,,,,,,,,,,,,,,,,,,,,,,,,,,,,,,,,,,,,,,5f1a3c1d94d028134ad46340,5ff3a3e383f6af98fc097e41,2021-01-05_01h25.37.880,Colour_Similarity_Experiment_v1,2020.1.2,Win32,60,5ff3a352adaa099f7659f8cc,,,,,,,,,,,,,,,,,,,,FF,,,,,,,,4,0.920235,,,,,,,,,,,,,,,,,,,,,,,,,,,,6,68,-88.5,1,0,0,response3disk,8,93,9,4.5,1,0,0,rectangle,9,4.5,1,0,0,6,0,0,0.00052,9,4.5,1,0,0,0,92,92,133,1,,,,,,,,,,,,,,,,,,,,,
,,,,,,,,,,,,,,,,,,,,,,,,,,,,,,,,,,,,,,,,,,,5f1a3c1d94d028134ad46340,5ff3a3e383f6af98fc097e41,2021-01-05_01h25.37.880,Colour_Similarity_Experiment_v1,2020.1.2,Win32,60,5ff3a352adaa099f7659f8cc,,,,,,,,,,,,,,,,,,,,FF,,,,,,,,7,0.850735,,,,,,,,,,,,,,,,,,,,,,,,,,,,1,52,89.5,1,0,0,response1disk,2,94,1,-13.5,1,0,0,rectangle,1,-13.5,1,0,0,6,4,0,0.00059,1,-13.5,1,0,0,0,93,93,2,1,,,,,,,,,,,,,,,,,,,,,
,,,,,,,,,,,,,,,,,,,,,,,,,,,,,,,,,,,,,,,,,,,5f1a3c1d94d028134ad46340,5ff3a3e383f6af98fc097e41,2021-01-05_01h25.37.880,Colour_Similarity_Experiment_v1,2020.1.2,Win32,60,5ff3a352adaa099f7659f8cc,,,,,,,,,,,,,,,,,,,,PF,,,,,,,,7,1.516495,,,,,,,,,,,,,,,,,,,,,,,,,,,,4,37,103.5,1,0,0,response1disk,8,95,-9,-6.5,1,0,0,rectangle,-9,-6.5,1,0,0,6,6,0,0.000525,-9,-6.5,1,0,0,0,94,94,124,1,,,,,,,,,,,,,,,,,,,,,
,,,,,,,,,,,,,,,,,,,,,,,,,,,,,,,,,,,,,,,,,,,5f1a3c1d94d028134ad46340,5ff3a3e383f6af98fc097e41,2021-01-05_01h25.37.880,Colour_Similarity_Experiment_v1,2020.1.2,Win32,60,5ff3a352adaa099f7659f8cc,,,,,,,,,,,,,,,,,,,,PF,,,,,,,,2,1.388445,,,,,,,,,,,,,,,,,,,,,,,,,,,,6,-78,-56.5,1,0,0,response5disk,7,96,16,12.5,1,0,0,rectangle,16,12.5,1,0,0,6,6,0,0.000545,16,12.5,1,0,0,0,95,95,50,1,,,,,,,,,,,,,,,,,,,,,
,,,,,,,,,,,,,,,,,,,,,,,,,,,,,,,,,,,,,,,,,,,5f1a3c1d94d028134ad46340,5ff3a3e383f6af98fc097e41,2021-01-05_01h25.37.880,Colour_Similarity_Experiment_v1,2020.1.2,Win32,60,5ff3a352adaa099f7659f8cc,,,,,,,,,,,,,,,,,,,,PF,,,,,,,,6,1.108905,,,,,,,,,,,,,,,,,,,,,,,,,,,,6,124,46.5,1,0,0,response1disk,4,97,-2,-16.5,1,0,0,rectangle,-2,-16.5,1,0,0,6,4,0,0.000555,-2,-16.5,1,0,0,0,96,96,33,1,,,,,,,,,,,,,,,,,,,,,
,,,,,,,,,,,,,,,,,,,,,,,,,,,,,,,,,,,,,,,,,,,5f1a3c1d94d028134ad46340,5ff3a3e383f6af98fc097e41,2021-01-05_01h25.37.880,Colour_Similarity_Experiment_v1,2020.1.2,Win32,60,5ff3a352adaa099f7659f8cc,,,,,,,,,,,,,,,,,,,,FF,,,,,,,,7,1.77004,,,,,,,,,,,,,,,,,,,,,,,,,,,,1,56,94.5,1,0,0,response1disk,8,98,-7,3.5,1,0,0,rectangle,-7,3.5,1,0,0,6,1,0,0.000565,-7,3.5,1,0,0,0,97,97,27,1,,,,,,,,,,,,,,,,,,,,,
,,,,,,,,,,,,,,,,,,,,,,,,,,,,,,,,,,,,,,,,,,,5f1a3c1d94d028134ad46340,5ff3a3e383f6af98fc097e41,2021-01-05_01h25.37.880,Colour_Similarity_Experiment_v1,2020.1.2,Win32,60,5ff3a352adaa099f7659f8cc,,,,,,,,,,,,,,,,,,,,FF,,,,,,,,0,1.102675,,,,,,,,,,,,,,,,,,,,,,,,,,,,9,-50,66.5,1,0,0,response7disk,9,99,-8,6.5,1,0,0,rectangle,-8,6.5,1,0,0,6,7,0,0.00051,-8,6.5,1,0,0,0,98,98,17,1,,,,,,,,,,,,,,,,,,,,,
,,,,,,,,,,,,,,,,,,,,,,,,,,,,,,,,,,,,,,,,,,,5f1a3c1d94d028134ad46340,5ff3a3e383f6af98fc097e41,2021-01-05_01h25.37.880,Colour_Similarity_Experiment_v1,2020.1.2,Win32,60,5ff3a352adaa099f7659f8cc,,,,,,,,,,,,,,,,,,,,PF,,,,,,,,2,1.476685,,,,,,,,,,,,,,,,,,,,,,,,,,,,1,-92,-51.5,1,0,0,response5disk,8,100,15,-5.5,1,0,0,rectangle,15,-5.5,1,0,0,6,0,0,0.0006,15,-5.5,1,0,0,0,99,99,65,1,,,,,,,,,,,,,,,,,,,,,
,,,,,,,,,,,,,,,,,,,,,,,,,,,,,,,,,,,,,,,,,,,5f1a3c1d94d028134ad46340,5ff3a3e383f6af98fc097e41,2021-01-05_01h25.37.880,Colour_Similarity_Experiment_v1,2020.1.2,Win32,60,5ff3a352adaa099f7659f8cc,,,,,,,,,,,,,,,,,,,,PF,,,,,,,,4,1.08586,,,,,,,,,,,,,,,,,,,,,,,,,,,,9,80,-110.5,1,0,0,response3disk,3,101,-8,17.5,1,0,0,rectangle,-8,17.5,1,0,0,6,5,0,0.000975,-8,17.5,1,0,0,0,100,100,119,1,,,,,,,,,,,,,,,,,,,,,
,,,,,,,,,,,,,,,,,,,,,,,,,,,,,,,,,,,,,,,,,,,5f1a3c1d94d028134ad46340,5ff3a3e383f6af98fc097e41,2021-01-05_01h25.37.880,Colour_Similarity_Experiment_v1,2020.1.2,Win32,60,5ff3a352adaa099f7659f8cc,,,,,,,,,,,,,,,,,,,,FF,,,,,,,,0,0.954755,,,,,,,,,,,,,,,,,,,,,,,,,,,,6,-27,73.5,1,0,0,response7disk,6,102,-3,-2.5,1,0,0,rectangle,-3,-2.5,1,0,0,6,6,0,0.00064,-3,-2.5,1,0,0,0,101,101,91,1,,,,,,,,,,,,,,,,,,,,,
,,,,,,,,,,,,,,,,,,,,,,,,,,,,,,,,,,,,,,,,,,,5f1a3c1d94d028134ad46340,5ff3a3e383f6af98fc097e41,2021-01-05_01h25.37.880,Colour_Similarity_Experiment_v1,2020.1.2,Win32,60,5ff3a352adaa099f7659f8cc,,,,,,,,,,,,,,,,,,,,PF,,,,,,,,1,1.693655,,,,,,,,,,,,,,,,,,,,,,,,,,,,5,-78,45.5,1,0,0,response7disk,6,103,-18,11.5,1,0,0,rectangle,-18,11.5,1,0,0,6,0,0,0.00052,-18,11.5,1,0,0,0,102,102,103,1,,,,,,,,,,,,,,,,,,,,,
,,,,,,,,,,,,,,,,,,,,,,,,,,,,,,,,,,,,,,,,,,,5f1a3c1d94d028134ad46340,5ff3a3e383f6af98fc097e41,2021-01-05_01h25.37.880,Colour_Similarity_Experiment_v1,2020.1.2,Win32,60,5ff3a352adaa099f7659f8cc,,,,,,,,,,,,,,,,,,,,PF,,,,,,,,2,0.95709,,,,,,,,,,,,,,,,,,,,,,,,,,,,9,-75,-60.5,1,0,0,response5disk,7,104,-9,-12.5,1,0,0,rectangle,-9,-12.5,1,0,0,6,5,0,0.00061,-9,-12.5,1,0,0,0,103,103,121,1,,,,,,,,,,,,,,,,,,,,,
,,,,,,,,,,,,,,,,,,,,,,,,,,,,,,,,,,,,,,,,,,,5f1a3c1d94d028134ad46340,5ff3a3e383f6af98fc097e41,2021-01-05_01h25.37.880,Colour_Similarity_Experiment_v1,2020.1.2,Win32,60,5ff3a352adaa099f7659f8cc,,,,,,,,,,,,,,,,,,,,FF,,,,,,,,2,0.71213,,,,,,,,,,,,,,,,,,,,,,,,,,,,6,-70,-60.5,1,0,0,response5disk,1,105,10,0.5,1,0,0,rectangle,10,0.5,1,0,0,6,6,0,0.00058,10,0.5,1,0,0,0,104,104,5,1,,,,,,,,,,,,,,,,,,,,,
,,,,,,,,,,,,,,,,,,,,,,,,,,,,,,,,,,,,,,,,,,,5f1a3c1d94d028134ad46340,5ff3a3e383f6af98fc097e41,2021-01-05_01h25.37.880,Colour_Similarity_Experiment_v1,2020.1.2,Win32,60,5ff3a352adaa099f7659f8cc,,,,,,,,,,,,,,,,,,,,PF,,,,,,,,0,1.10724,,,,,,,,,,,,,,,,,,,,,,,,,,,,7,-77,112.5,1,0,0,response7disk,2,106,-10,-1.5,1,0,0,rectangle,-10,-1.5,1,0,0,6,3,0,0.0006,-10,-1.5,1,0,0,0,105,105,32,1,,,,,,,,,,,,,,,,,,,,,
,,,,,,,,,,,,,,,,,,,,,,,,,,,,,,,,,,,,,,,,,,,5f1a3c1d94d028134ad46340,5ff3a3e383f6af98fc097e41,2021-01-05_01h25.37.880,Colour_Similarity_Experiment_v1,2020.1.2,Win32,60,5ff3a352adaa099f7659f8cc,,,,,,,,,,,,,,,,,,,,FF,,,,,,,,1,1.07231,,,,,,,,,,,,,,,,,,,,,,,,,,,,3,-91,53.5,1,0,0,response7disk,4,107,7,4.5,1,0,0,rectangle,7,4.5,1,0,0,6,6,0,0.000575,7,4.5,1,0,0,0,106,106,110,1,,,,,,,,,,,,,,,,,,,,,
,,,,,,,,,,,,,,,,,,,,,,,,,,,,,,,,,,,,,,,,,,,5f1a3c1d94d028134ad46340,5ff3a3e383f6af98fc097e41,2021-01-05_01h25.37.880,Colour_Similarity_Experiment_v1,2020.1.2,Win32,60,5ff3a352adaa099f7659f8cc,,,,,,,,,,,,,,,,,,,,FF,,,,,,,,3,0.857845,,,,,,,,,,,,,,,,,,,,,,,,,,,,7,-70,-100.5,1,0,0,response5disk,1,108,16,2.5,1,0,0,rectangle,16,2.5,1,0,0,6,3,0,0.00066,16,2.5,1,0,0,0,107,107,132,1,,,,,,,,,,,,,,,,,,,,,
,,,,,,,,,,,,,,,,,,,,,,,,,,,,,,,,,,,,,,,,,,,5f1a3c1d94d028134ad46340,5ff3a3e383f6af98fc097e41,2021-01-05_01h25.37.880,Colour_Similarity_Experiment_v1,2020.1.2,Win32,60,5ff3a352adaa099f7659f8cc,,,,,,,,,,,,,,,,,,,,PF,,,,,,,,2,0.95197,,,,,,,,,,,,,,,,,,,,,,,,,,,,7,-107,-54.5,1,0,0,response5disk,4,109,-10,-1.5,1,0,0,rectangle,-10,-1.5,1,0,0,6,5,0,0.000555,-10,-1.5,1,0,0,0,108,108,43,1,,,,,,,,,,,,,,,,,,,,,
,,,,,,,,,,,,,,,,,,,,,,,,,,,,,,,,,,,,,,,,,,,5f1a3c1d94d028134ad46340,5ff3a3e383f6af98fc097e41,2021-01-05_01h25.37.880,Colour_Similarity_Experiment_v1,2020.1.2,Win32,60,5ff3a352adaa099f7659f8cc,,,,,,,,,,,,,,,,,,,,FF,,,,,,,,5,2.30869,,,,,,,,,,,,,,,,,,,,,,,,,,,,5,60,-39.5,1,0,0,response3disk,9,110,12,1.5,1,0,0,rectangle,12,1.5,1,0,0,6,6,0,0.00057,12,1.5,1,0,0,0,109,109,61,1,,,,,,,,,,,,,,,,,,,,,
,,,,,,,,,,,,,,,,,,,,,,,,,,,,,,,,,,,,,,,,,,,5f1a3c1d94d028134ad46340,5ff3a3e383f6af98fc097e41,2021-01-05_01h25.37.880,Colour_Similarity_Experiment_v1,2020.1.2,Win32,60,5ff3a352adaa099f7659f8cc,,,,,,,,,,,,,,,,,,,,PF,,,,,,,,5,0.962655,,,,,,,,,,,,,,,,,,,,,,,,,,,,7,96,-46.5,1,0,0,response3disk,5,111,5,-3.5,1,0,0,rectangle,5,-3.5,1,0,0,6,4,0,0.00138,5,-3.5,1,0,0,0,110,110,92,1,,,,,,,,,,,,,,,,,,,,,
,,,,,,,,,,,,,,,,,,,,,,,,,,,,,,,,,,,,,,,,,,,5f1a3c1d94d028134ad46340,5ff3a3e383f6af98fc097e41,2021-01-05_01h25.37.880,Colour_Similarity_Experiment_v1,2020.1.2,Win32,60,5ff3a352adaa099f7659f8cc,,,,,,,,,,,,,,,,,,,,FF,,,,,,,,1,0.84106,,,,,,,,,,,,,,,,,,,,,,,,,,,,7,-101,29.5,1,0,0,response7disk,6,112,9,1.5,1,0,0,rectangle,9,1.5,1,0,0,6,3,0,0.00056,9,1.5,1,0,0,0,111,111,31,1,,,,,,,,,,,,,,,,,,,,,
,,,,,,,,,,,,,,,,,,,,,,,,,,,,,,,,,,,,,,,,,,,5f1a3c1d94d028134ad46340,5ff3a3e383f6af98fc097e41,2021-01-05_01h25.37.880,Colour_Similarity_Experiment_v1,2020.1.2,Win32,60,5ff3a352adaa099f7659f8cc,,,,,,,,,,,,,,,,,,,,FF,,,,,,,,7,0.62067,,,,,,,,,,,,,,,,,,,,,,,,,,,,1,41,111.5,1,0,0,response1disk,3,113,-5,7.5,1,0,0,rectangle,-5,7.5,1,0,0,6,5,0,0.00056,-5,7.5,1,0,0,0,112,112,99,1,,,,,,,,,,,,,,,,,,,,,
,,,,,,,,,,,,,,,,,,,,,,,,,,,,,,,,,,,,,,,,,,,5f1a3c1d94d028134ad46340,5ff3a3e383f6af98fc097e41,2021-01-05_01h25.37.880,Colour_Similarity_Experiment_v1,2020.1.2,Win32,60,5ff3a352adaa099f7659f8cc,,,,,,,,,,,,,,,,,,,,PF,,,,,,,,0,1.85104,,,,,,,,,,,,,,,,,,,,,,,,,,,,4,-35,73.5,1,0,0,response7disk,4,114,2,-1.5,1,0,0,rectangle,2,-1.5,1,0,0,6,0,0,0.00053,2,-1.5,1,0,0,0,113,113,70,1,,,,,,,,,,,,,,,,,,,,,
,,,,,,,,,,,,,,,,,,,,,,,,,,,,,,,,,,,,,,,,,,,5f1a3c1d94d028134ad46340,5ff3a3e383f6af98fc097e41,2021-01-05_01h25.37.880,Colour_Similarity_Experiment_v1,2020.1.2,Win32,60,5ff3a352adaa099f7659f8cc,,,,,,,,,,,,,,,,,,,,FF,,,,,,,,1,1.198255,,,,,,,,,,,,,,,,,,,,,,,,,,,,7,-73,34.5,1,0,0,response7disk,2,115,-12,7.5,1,0,0,rectangle,-12,7.5,1,0,0,6,6,0,0.00145,-12,7.5,1,0,0,0,114,114,138,1,,,,,,,,,,,,,,,,,,,,,
,,,,,,,,,,,,,,,,,,,,,,,,,,,,,,,,,,,,,,,,,,,5f1a3c1d94d028134ad46340,5ff3a3e383f6af98fc097e41,2021-01-05_01h25.37.880,Colour_Similarity_Experiment_v1,2020.1.2,Win32,60,5ff3a352adaa099f7659f8cc,,,,,,,,,,,,,,,,,,,,FF,,,,,,,,6,1.656925,,,,,,,,,,,,,,,,,,,,,,,,,,,,2,100,44.5,1,0,0,response1disk,5,116,15,0.5,1,0,0,rectangle,15,0.5,1,0,0,6,2,0,0.00052,15,0.5,1,0,0,0,115,115,80,1,,,,,,,,,,,,,,,,,,,,,
,,,,,,,,,,,,,,,,,,,,,,,,,,,,,,,,,,,,,,,,,,,5f1a3c1d94d028134ad46340,5ff3a3e383f6af98fc097e41,2021-01-05_01h25.37.880,Colour_Similarity_Experiment_v1,2020.1.2,Win32,60,5ff3a352adaa099f7659f8cc,,,,,,,,,,,,,,,,,,,,FF,,,,,,,,7,1.59328,,,,,,,,,,,,,,,,,,,,,,,,,,,,6,71,86.5,1,0,0,response1disk,9,117,3,1.5,1,0,0,rectangle,122,41.5,1,0,0,6,6,1,1.718355,6,5.5,1,0,0,0,116,116,160,1,response1disk_3,rectangle,,,,,,,,,,,,,,,,,,,
,,,,,,,,,,,,,,,,,,,,,,,,,,,,,,,,,,,,,,,,,,,5f1a3c1d94d028134ad46340,5ff3a3e383f6af98fc097e41,2021-01-05_01h25.37.880,Colour_Similarity_Experiment_v1,2020.1.2,Win32,60,5ff3a352adaa099f7659f8cc,,,,,,,,,,,,,,,,,,,,PF,,,,,,,,5,0.84907,,,,,,,,,,,,,,,,,,,,,,,,,,,,5,110,-40.5,1,0,0,response3disk,9,118,14,4.5,1,0,0,rectangle,125,21.5,1,0,0,6,6,1,1.8819,-3,-9.5,1,0,0,0,117,117,136,1,response1disk_3,rectangle,,,,,,,,,,,,,,,,,,,
,,,,,,,,,,,,,,,,,,,,,,,,,,,,,,,,,,,,,,,,,,,5f1a3c1d94d028134ad46340,5ff3a3e383f6af98fc097e41,2021-01-05_01h25.37.880,Colour_Similarity_Experiment_v1,2020.1.2,Win32,60,5ff3a352adaa099f7659f8cc,,,,,,,,,,,,,,,,,,,,PF,,,,,,,,1,1.284355,,,,,,,,,,,,,,,,,,,,,,,,,,,,6,-82,32.5,1,0,0,response7disk,5,119,15,-2.5,1,0,0,rectangle,15,-2.5,1,0,0,6,1,0,0.000555,15,-2.5,1,0,0,0,118,118,59,1,,,,,,,,,,,,,,,,,,,,,
,,,,,,,,,,,,,,,,,,,,,,,,,,,,,,,,,,,,,,,,,,,5f1a3c1d94d028134ad46340,5ff3a3e383f6af98fc097e41,2021-01-05_01h25.37.880,Colour_Similarity_Experiment_v1,2020.1.2,Win32,60,5ff3a352adaa099f7659f8cc,,,,,,,,,,,,,,,,,,,,PF,,,,,,,,7,0.91679,,,,,,,,,,,,,,,,,,,,,,,,,,,,7,63,96.5,1,0,0,response1disk,1,120,28,-7.5,1,0,0,rectangle,28,-7.5,1,0,0,6,6,0,0.00069,28,-7.5,1,0,0,0,119,119,53,1,,,,,,,,,,,,,,,,,,,,,
,,,,,,,,,,,,,,,,,,,,,,,,,,,,,,,,,,,,,,,,,,,5f1a3c1d94d028134ad46340,5ff3a3e383f6af98fc097e41,2021-01-05_01h25.37.880,Colour_Similarity_Experiment_v1,2020.1.2,Win32,60,5ff3a352adaa099f7659f8cc,,,,,,,,,,,,,,,,,,,,PF,,,,,,,,7,0.94968,,,,,,,,,,,,,,,,,,,,,,,,,,,,9,39,101.5,1,0,0,response1disk,4,121,-1,-4.5,1,0,0,rectangle,-1,-4.5,1,0,0,6,2,0,0.0008,-1,-4.5,1,0,0,0,120,120,114,1,,,,,,,,,,,,,,,,,,,,,
,,,,,,,,,,,,,,,,,,,,,,,,,,,,,,,,,,,,,,,,,,,5f1a3c1d94d028134ad46340,5ff3a3e383f6af98fc097e41,2021-01-05_01h25.37.880,Colour_Similarity_Experiment_v1,2020.1.2,Win32,60,5ff3a352adaa099f7659f8cc,,,,,,,,,,,,,,,,,,,,FF,,,,,,,,0,0.884655,,,,,,,,,,,,,,,,,,,,,,,,,,,,3,-52,82.5,1,0,0,response7disk,3,122,-6,-4.5,1,0,0,rectangle,-6,-4.5,1,0,0,6,4,0,0.00052,-6,-4.5,1,0,0,0,121,121,68,1,,,,,,,,,,,,,,,,,,,,,
,,,,,,,,,,,,,,,,,,,,,,,,,,,,,,,,,,,,,,,,,,,5f1a3c1d94d028134ad46340,5ff3a3e383f6af98fc097e41,2021-01-05_01h25.37.880,Colour_Similarity_Experiment_v1,2020.1.2,Win32,60,5ff3a352adaa099f7659f8cc,,,,,,,,,,,,,,,,,,,,FF,,,,,,,,5,1.251485,,,,,,,,,,,,,,,,,,,,,,,,,,,,3,100,-51.5,1,0,0,response3disk,8,123,-8,2.5,1,0,0,rectangle,-8,2.5,1,0,0,6,1,0,0.0005,-8,2.5,1,0,0,0,122,122,44,1,,,,,,,,,,,,,,,,,,,,,
,,,,,,,,,,,,,,,,,,,,,,,,,,,,,,,,,,,,,,,,,,,5f1a3c1d94d028134ad46340,5ff3a3e383f6af98fc097e41,2021-01-05_01h25.37.880,Colour_Similarity_Experiment_v1,2020.1.2,Win32,60,5ff3a352adaa099f7659f8cc,,,,,,,,,,,,,,,,,,,,FF,,,,,,,,6,0.78401,,,,,,,,,,,,,,,,,,,,,,,,,,,,3,120,54.5,1,0,0,response1disk,1,124,22,-1.5,1,0,0,rectangle,22,-1.5,1,0,0,6,6,0,0.0007,22,-1.5,1,0,0,0,123,123,125,1,,,,,,,,,,,,,,,,,,,,,
,,,,,,,,,,,,,,,,,,,,,,,,,,,,,,,,,,,,,,,,,,,5f1a3c1d94d028134ad46340,5ff3a3e383f6af98fc097e41,2021-01-05_01h25.37.880,Colour_Similarity_Experiment_v1,2020.1.2,Win32,60,5ff3a352adaa099f7659f8cc,,,,,,,,,,,,,,,,,,,,FF,,,,,,,,0,1.73337,,,,,,,,,,,,,,,,,,,,,,,,,,,,2,-50,84.5,1,0,0,response7disk,1,125,-1,7.5,1,0,0,rectangle,-1,7.5,1,0,0,6,1,0,0.0005,-1,7.5,1,0,0,0,124,124,85,1,,,,,,,,,,,,,,,,,,,,,
,,,,,,,,,,,,,,,,,,,,,,,,,,,,,,,,,,,,,,,,,,,5f1a3c1d94d028134ad46340,5ff3a3e383f6af98fc097e41,2021-01-05_01h25.37.880,Colour_Similarity_Experiment_v1,2020.1.2,Win32,60,5ff3a352adaa099f7659f8cc,,,,,,,,,,,,,,,,,,,,FF,,,,,,,,5,2.284345,,,,,,,,,,,,,,,,,,,,,,,,,,,,6,112,-50.5,1,0,0,response3disk,4,126,-5,2.5,1,0,0,rectangle,-5,2.5,1,0,0,6,5,0,0.000625,-5,2.5,1,0,0,0,125,125,56,1,,,,,,,,,,,,,,,,,,,,,
,,,,,,,,,,,,,,,,,,,,,,,,,,,,,,,,,,,,,,,,,,,5f1a3c1d94d028134ad46340,5ff3a3e383f6af98fc097e41,2021-01-05_01h25.37.880,Colour_Similarity_Experiment_v1,2020.1.2,Win32,60,5ff3a352adaa099f7659f8cc,,,,,,,,,,,,,,,,,,,,PF,,,,,,,,6,1.300025,,,,,,,,,,,,,,,,,,,,,,,,,,,,8,104,38.5,1,0,0,response1disk,7,127,-5,-8.5,1,0,0,rectangle,-5,-8.5,1,0,0,6,0,0,0.000785,-5,-8.5,1,0,0,0,126,126,23,1,,,,,,,,,,,,,,,,,,,,,
,,,,,,,,,,,,,,,,,,,,,,,,,,,,,,,,,,,,,,,,,,,5f1a3c1d94d028134ad46340,5ff3a3e383f6af98fc097e41,2021-01-05_01h25.37.880,Colour_Similarity_Experiment_v1,2020.1.2,Win32,60,5ff3a352adaa099f7659f8cc,,,,,,,,,,,,,,,,,,,,PF,,,,,,,,6,1.041555,,,,,,,,,,,,,,,,,,,,,,,,,,,,3,86,47.5,1,0,0,response1disk,8,128,-3,-1.5,1,0,0,rectangle,-3,-1.5,1,0,0,6,7,0,0.000565,-3,-1.5,1,0,0,0,127,127,3,1,,,,,,,,,,,,,,,,,,,,,
,,,,,,,,,,,,,,,,,,,,,,,,,,,,,,,,,,,,,,,,,,,5f1a3c1d94d028134ad46340,5ff3a3e383f6af98fc097e41,2021-01-05_01h25.37.880,Colour_Similarity_Experiment_v1,2020.1.2,Win32,60,5ff3a352adaa099f7659f8cc,,,,,,,,,,,,,,,,,,,,PF,,,,,,,,7,0.78855,,,,,,,,,,,,,,,,,,,,,,,,,,,,4,40,83.5,1,0,0,response1disk,2,129,-12,6.5,1,0,0,rectangle,-12,6.5,1,0,0,6,7,0,0.000705,-12,6.5,1,0,0,0,128,128,108,1,,,,,,,,,,,,,,,,,,,,,
,,,,,,,,,,,,,,,,,,,,,,,,,,,,,,,,,,,,,,,,,,,5f1a3c1d94d028134ad46340,5ff3a3e383f6af98fc097e41,2021-01-05_01h25.37.880,Colour_Similarity_Experiment_v1,2020.1.2,Win32,60,5ff3a352adaa099f7659f8cc,,,,,,,,,,,,,,,,,,,,FF,,,,,,,,7,0.86959,,,,,,,,,,,,,,,,,,,,,,,,,,,,4,59,88.5,1,0,0,response1disk,8,130,8,-0.5,1,0,0,rectangle,8,-0.5,1,0,0,6,4,0,0.000465,8,-0.5,1,0,0,0,129,129,35,1,,,,,,,,,,,,,,,,,,,,,
,,,,,,,,,,,,,,,,,,,,,,,,,,,,,,,,,,,,,,,,,,,5f1a3c1d94d028134ad46340,5ff3a3e383f6af98fc097e41,2021-01-05_01h25.37.880,Colour_Similarity_Experiment_v1,2020.1.2,Win32,60,5ff3a352adaa099f7659f8cc,,,,,,,,,,,,,,,,,,,,FF,,,,,,,,7,0.767105,,,,,,,,,,,,,,,,,,,,,,,,,,,,7,48,76.5,1,0,0,response1disk,3,131,-5,8.5,1,0,0,rectangle,-5,8.5,1,0,0,6,2,0,0.00064,-5,8.5,1,0,0,0,130,130,73,1,,,,,,,,,,,,,,,,,,,,,
,,,,,,,,,,,,,,,,,,,,,,,,,,,,,,,,,,,,,,,,,,,5f1a3c1d94d028134ad46340,5ff3a3e383f6af98fc097e41,2021-01-05_01h25.37.880,Colour_Similarity_Experiment_v1,2020.1.2,Win32,60,5ff3a352adaa099f7659f8cc,,,,,,,,,,,,,,,,,,,,FF,,,,,,,,7,1.39773,,,,,,,,,,,,,,,,,,,,,,,,,,,,4,68,97.5,1,0,0,response1disk,1,132,11,10.5,1,0,0,rectangle,11,10.5,1,0,0,6,1,0,0.00057,11,10.5,1,0,0,0,131,131,102,1,,,,,,,,,,,,,,,,,,,,,
,,,,,,,,,,,,,,,,,,,,,,,,,,,,,,,,,,,,,,,,,,,5f1a3c1d94d028134ad46340,5ff3a3e383f6af98fc097e41,2021-01-05_01h25.37.880,Colour_Similarity_Experiment_v1,2020.1.2,Win32,60,5ff3a352adaa099f7659f8cc,,,,,,,,,,,,,,,,,,,,FF,,,,,,,,3,1.345055,,,,,,,,,,,,,,,,,,,,,,,,,,,,5,-39,-95.5,1,0,0,response5disk,3,133,-11,16.5,1,0,0,rectangle,-11,16.5,1,0,0,6,5,0,0.00057,-11,16.5,1,0,0,0,132,132,25,1,,,,,,,,,,,,,,,,,,,,,
,,,,,,,,,,,,,,,,,,,,,,,,,,,,,,,,,,,,,,,,,,,5f1a3c1d94d028134ad46340,5ff3a3e383f6af98fc097e41,2021-01-05_01h25.37.880,Colour_Similarity_Experiment_v1,2020.1.2,Win32,60,5ff3a352adaa099f7659f8cc,,,,,,,,,,,,,,,,,,,,PF,,,,,,,,0,0.804195,,,,,,,,,,,,,,,,,,,,,,,,,,,,5,-38,63.5,1,0,0,response7disk,5,134,-13,-7.5,1,0,0,rectangle,-13,-7.5,1,0,0,6,3,0,0.00051,-13,-7.5,1,0,0,0,133,133,94,1,,,,,,,,,,,,,,,,,,,,,
,,,,,,,,,,,,,,,,,,,,,,,,,,,,,,,,,,,,,,,,,,,5f1a3c1d94d028134ad46340,5ff3a3e383f6af98fc097e41,2021-01-05_01h25.37.880,Colour_Similarity_Experiment_v1,2020.1.2,Win32,60,5ff3a352adaa099f7659f8cc,,,,,,,,,,,,,,,,,,,,PF,,,,,,,,5,1.411795,,,,,,,,,,,,,,,,,,,,,,,,,,,,9,73,-51.5,1,0,0,response3disk,1,135,-3,-4.5,1,0,0,rectangle,-3,-4.5,1,0,0,6,5,0,0.000625,-3,-4.5,1,0,0,0,134,134,74,1,,,,,,,,,,,,,,,,,,,,,
,,,,,,,,,,,,,,,,,,,,,,,,,,,,,,,,,,,,,,,,,,,5f1a3c1d94d028134ad46340,5ff3a3e383f6af98fc097e41,2021-01-05_01h25.37.880,Colour_Similarity_Experiment_v1,2020.1.2,Win32,60,5ff3a352adaa099f7659f8cc,,,,,,,,,,,,,,,,,,,,PF,,,,,,,,0,0.830225,,,,,,,,,,,,,,,,,,,,,,,,,,,,2,-32,73.5,1,0,0,response7disk,2,136,-8,-7.5,1,0,0,rectangle,-8,-7.5,1,0,0,6,7,0,0.00054,-8,-7.5,1,0,0,0,135,135,14,1,,,,,,,,,,,,,,,,,,,,,
,,,,,,,,,,,,,,,,,,,,,,,,,,,,,,,,,,,,,,,,,,,5f1a3c1d94d028134ad46340,5ff3a3e383f6af98fc097e41,2021-01-05_01h25.37.880,Colour_Similarity_Experiment_v1,2020.1.2,Win32,60,5ff3a352adaa099f7659f8cc,,,,,,,,,,,,,,,,,,,,PF,,,,,,,,0,0.748975,,,,,,,,,,,,,,,,,,,,,,,,,,,,8,-34,81.5,1,0,0,response7disk,8,137,-1,1.5,1,0,0,rectangle,-1,1.5,1,0,0,6,6,0,0.00069,-1,1.5,1,0,0,0,136,136,153,1,,,,,,,,,,,,,,,,,,,,,
,,,,,,,,,,,,,,,,,,,,,,,,,,,,,,,,,,,,,,,,,,,5f1a3c1d94d028134ad46340,5ff3a3e383f6af98fc097e41,2021-01-05_01h25.37.880,Colour_Similarity_Experiment_v1,2020.1.2,Win32,60,5ff3a352adaa099f7659f8cc,,,,,,,,,,,,,,,,,,,,PF,,,,,,,,6,1.984835,,,,,,,,,,,,,,,,,,,,,,,,,,,,5,98,45.5,1,0,0,response1disk,3,138,20,-9.5,1,0,0,rectangle,20,-9.5,1,0,0,6,5,0,0.000515,20,-9.5,1,0,0,0,137,137,109,1,,,,,,,,,,,,,,,,,,,,,
,,,,,,,,,,,,,,,,,,,,,,,,,,,,,,,,,,,,,,,,,,,5f1a3c1d94d028134ad46340,5ff3a3e383f6af98fc097e41,2021-01-05_01h25.37.880,Colour_Similarity_Experiment_v1,2020.1.2,Win32,60,5ff3a352adaa099f7659f8cc,,,,,,,,,,,,,,,,,,,,PF,,,,,,,,7,1.91816,,,,,,,,,,,,,,,,,,,,,,,,,,,,4,48,93.5,1,0,0,response1disk,9,139,-7,7.5,1,0,0,rectangle,-7,7.5,1,0,0,6,0,0,0.00066,-7,7.5,1,0,0,0,138,138,75,1,,,,,,,,,,,,,,,,,,,,,
,,,,,,,,,,,,,,,,,,,,,,,,,,,,,,,,,,,,,,,,,,,5f1a3c1d94d028134ad46340,5ff3a3e383f6af98fc097e41,2021-01-05_01h25.37.880,Colour_Similarity_Experiment_v1,2020.1.2,Win32,60,5ff3a352adaa099f7659f8cc,,,,,,,,,,,,,,,,,,,,FF,,,,,,,,5,1.133935,,,,,,,,,,,,,,,,,,,,,,,,,,,,2,70,-38.5,1,0,0,response3disk,6,140,-14,-6.5,1,0,0,rectangle,-14,-6.5,1,0,0,6,3,0,0.0005,-14,-6.5,1,0,0,0,139,139,40,1,,,,,,,,,,,,,,,,,,,,,
,,,,,,,,,,,,,,,,,,,,,,,,,,,,,,,,,,,,,,,,,,,5f1a3c1d94d028134ad46340,5ff3a3e383f6af98fc097e41,2021-01-05_01h25.37.880,Colour_Similarity_Experiment_v1,2020.1.2,Win32,60,5ff3a352adaa099f7659f8cc,,,,,,,,,,,,,,,,,,,,PF,,,,,,,,2,0.967685,,,,,,,,,,,,,,,,,,,,,,,,,,,,4,-73,-40.5,1,0,0,response5disk,5,141,-8,8.5,1,0,0,rectangle,-8,8.5,1,0,0,6,2,0,0.00064,-8,8.5,1,0,0,0,140,140,49,1,,,,,,,,,,,,,,,,,,,,,
,,,,,,,,,,,,,,,,,,,,,,,,,,,,,,,,,,,,,,,,,,,5f1a3c1d94d028134ad46340,5ff3a3e383f6af98fc097e41,2021-01-05_01h25.37.880,Colour_Similarity_Experiment_v1,2020.1.2,Win32,60,5ff3a352adaa099f7659f8cc,,,,,,,,,,,,,,,,,,,,PF,,,,,,,,3,0.92985,,,,,,,,,,,,,,,,,,,,,,,,,,,,4,-46,-74.5,1,0,0,response5disk,6,142,9,-10.5,1,0,0,rectangle,9,-10.5,1,0,0,6,3,0,0.001175,9,-10.5,1,0,0,0,141,141,120,1,,,,,,,,,,,,,,,,,,,,,
,,,,,,,,,,,,,,,,,,,,,,,,,,,,,,,,,,,,,,,,,,,5f1a3c1d94d028134ad46340,5ff3a3e383f6af98fc097e41,2021-01-05_01h25.37.880,Colour_Similarity_Experiment_v1,2020.1.2,Win32,60,5ff3a352adaa099f7659f8cc,,,,,,,,,,,,,,,,,,,,FF,,,,,,,,7,1.33465,,,,,,,,,,,,,,,,,,,,,,,,,,,,2,75,79.5,1,0,0,response1disk,9,143,12,-16.5,1,0,0,rectangle,12,-16.5,1,0,0,6,5,0,0.00064,12,-16.5,1,0,0,0,142,142,72,1,,,,,,,,,,,,,,,,,,,,,
,,,,,,,,,,,,,,,,,,,,,,,,,,,,,,,,,,,,,,,,,,,5f1a3c1d94d028134ad46340,5ff3a3e383f6af98fc097e41,2021-01-05_01h25.37.880,Colour_Similarity_Experiment_v1,2020.1.2,Win32,60,5ff3a352adaa099f7659f8cc,,,,,,,,,,,,,,,,,,,,PF,,,,,,,,7,1.301965,,,,,,,,,,,,,,,,,,,,,,,,,,,,6,56,102.5,1,0,0,response1disk,9,144,2,-16.5,1,0,0,rectangle,2,-16.5,1,0,0,6,2,0,0.000845,2,-16.5,1,0,0,0,143,143,45,1,,,,,,,,,,,,,,,,,,,,,
,,,,,,,,,,,,,,,,,,,,,,,,,,,,,,,,,,,,,,,,,,,5f1a3c1d94d028134ad46340,5ff3a3e383f6af98fc097e41,2021-01-05_01h25.37.880,Colour_Similarity_Experiment_v1,2020.1.2,Win32,60,5ff3a352adaa099f7659f8cc,,,,,,,,,,,,,,,,,,,,PF,,,,,,,,3,1.43495,,,,,,,,,,,,,,,,,,,,,,,,,,,,1,-57,-78.5,1,0,0,response5disk,9,145,-9,14.5,1,0,0,rectangle,-9,14.5,1,0,0,6,3,0,0.00062,-9,14.5,1,0,0,0,144,144,15,1,,,,,,,,,,,,,,,,,,,,,
,,,,,,,,,,,,,,,,,,,,,,,,,,,,,,,,,,,,,,,,,,,5f1a3c1d94d028134ad46340,5ff3a3e383f6af98fc097e41,2021-01-05_01h25.37.880,Colour_Similarity_Experiment_v1,2020.1.2,Win32,60,5ff3a352adaa099f7659f8cc,,,,,,,,,,,,,,,,,,,,PF,,,,,,,,5,0.95802,,,,,,,,,,,,,,,,,,,,,,,,,,,,9,60,-44.5,1,0,0,response3disk,2,146,-3,-6.5,1,0,0,rectangle,-3,-6.5,1,0,0,6,4,0,0.000535,-3,-6.5,1,0,0,0,145,145,157,1,,,,,,,,,,,,,,,,,,,,,
,,,,,,,,,,,,,,,,,,,,,,,,,,,,,,,,,,,,,,,,,,,5f1a3c1d94d028134ad46340,5ff3a3e383f6af98fc097e41,2021-01-05_01h25.37.880,Colour_Similarity_Experiment_v1,2020.1.2,Win32,60,5ff3a352adaa099f7659f8cc,,,,,,,,,,,,,,,,,,,,FF,,,,,,,,6,0.733335,,,,,,,,,,,,,,,,,,,,,,,,,,,,7,85,45.5,1,0,0,response1disk,9,147,-2,-3.5,1,0,0,rectangle,-2,-3.5,1,0,0,6,4,0,0.00068,-2,-3.5,1,0,0,0,146,146,155,1,,,,,,,,,,,,,,,,,,,,,
,,,,,,,,,,,,,,,,,,,,,,,,,,,,,,,,,,,,,,,,,,,5f1a3c1d94d028134ad46340,5ff3a3e383f6af98fc097e41,2021-01-05_01h25.37.880,Colour_Similarity_Experiment_v1,2020.1.2,Win32,60,5ff3a352adaa099f7659f8cc,,,,,,,,,,,,,,,,,,,,FF,,,,,,,,0,0.65452,,,,,,,,,,,,,,,,,,,,,,,,,,,,1,-24,83.5,1,0,0,response7disk,1,148,-2,-11.5,1,0,0,rectangle,-2,-11.5,1,0,0,6,0,0,0.000645,-2,-11.5,1,0,0,0,147,147,151,1,,,,,,,,,,,,,,,,,,,,,
,,,,,,,,,,,,,,,,,,,,,,,,,,,,,,,,,,,,,,,,,,,5f1a3c1d94d028134ad46340,5ff3a3e383f6af98fc097e41,2021-01-05_01h25.37.880,Colour_Similarity_Experiment_v1,2020.1.2,Win32,60,5ff3a352adaa099f7659f8cc,,,,,,,,,,,,,,,,,,,,FF,,,,,,,,2,1.201295,,,,,,,,,,,,,,,,,,,,,,,,,,,,1,-62,-49.5,1,0,0,response5disk,9,149,-1,-10.5,1,0,0,rectangle,-1,-10.5,1,0,0,6,1,0,0.000475,-1,-10.5,1,0,0,0,148,148,123,1,,,,,,,,,,,,,,,,,,,,,
,,,,,,,,,,,,,,,,,,,,,,,,,,,,,,,,,,,,,,,,,,,5f1a3c1d94d028134ad46340,5ff3a3e383f6af98fc097e41,2021-01-05_01h25.37.880,Colour_Similarity_Experiment_v1,2020.1.2,Win32,60,5ff3a352adaa099f7659f8cc,,,,,,,,,,,,,,,,,,,,PF,,,,,,,,7,1.00097,,,,,,,,,,,,,,,,,,,,,,,,,,,,1,51,73.5,1,0,0,response1disk,3,150,14,-3.5,1,0,0,rectangle,14,-3.5,1,0,0,6,6,0,0.00069,14,-3.5,1,0,0,0,149,149,1,1,,,,,,,,,,,,,,,,,,,,,
,,,,,,,,,,,,,,,,,,,,,,,,,,,,,,,,,,,,,,,,,,,5f1a3c1d94d028134ad46340,5ff3a3e383f6af98fc097e41,2021-01-05_01h25.37.880,Colour_Similarity_Experiment_v1,2020.1.2,Win32,60,5ff3a352adaa099f7659f8cc,,,,,,,,,,,,,,,,,,,,FF,,,,,,,,5,1.484955,,,,,,,,,,,,,,,,,,,,,,,,,,,,3,92,-41.5,1,0,0,response3disk,6,151,-7,11.5,1,0,0,rectangle,-7,11.5,1,0,0,6,5,0,0.000665,-7,11.5,1,0,0,0,150,150,95,1,,,,,,,,,,,,,,,,,,,,,
,,,,,,,,,,,,,,,,,,,,,,,,,,,,,,,,,,,,,,,,,,,5f1a3c1d94d028134ad46340,5ff3a3e383f6af98fc097e41,2021-01-05_01h25.37.880,Colour_Similarity_Experiment_v1,2020.1.2,Win32,60,5ff3a352adaa099f7659f8cc,,,,,,,,,,,,,,,,,,,,FF,,,,,,,,2,1.81687,,,,,,,,,,,,,,,,,,,,,,,,,,,,5,-71,-68.5,1,0,0,response5disk,6,152,-14,-9.5,1,0,0,rectangle,-14,-9.5,1,0,0,6,6,0,0.000475,-14,-9.5,1,0,0,0,151,151,12,1,,,,,,,,,,,,,,,,,,,,,
,,,,,,,,,,,,,,,,,,,,,,,,,,,,,,,,,,,,,,,,,,,5f1a3c1d94d028134ad46340,5ff3a3e383f6af98fc097e41,2021-01-05_01h25.37.880,Colour_Similarity_Experiment_v1,2020.1.2,Win32,60,5ff3a352adaa099f7659f8cc,,,,,,,,,,,,,,,,,,,,FF,,,,,,,,6,1.002,,,,,,,,,,,,,,,,,,,,,,,,,,,,4,84,47.5,1,0,0,response1disk,7,153,13,-8.5,1,0,0,rectangle,13,-8.5,1,0,0,6,3,0,0.000845,13,-8.5,1,0,0,0,152,152,87,1,,,,,,,,,,,,,,,,,,,,,
,,,,,,,,,,,,,,,,,,,,,,,,,,,,,,,,,,,,,,,,,,,5f1a3c1d94d028134ad46340,5ff3a3e383f6af98fc097e41,2021-01-05_01h25.37.880,Colour_Similarity_Experiment_v1,2020.1.2,Win32,60,5ff3a352adaa099f7659f8cc,,,,,,,,,,,,,,,,,,,,FF,,,,,,,,7,0.985135,,,,,,,,,,,,,,,,,,,,,,,,,,,,4,55,89.5,1,0,0,response1disk,2,154,-9,-8.5,1,0,0,rectangle,-9,-8.5,1,0,0,6,6,0,0.000495,-9,-8.5,1,0,0,0,153,153,13,1,,,,,,,,,,,,,,,,,,,,,
,,,,,,,,,,,,,,,,,,,,,,,,,,,,,,,,,,,,,,,,,,,5f1a3c1d94d028134ad46340,5ff3a3e383f6af98fc097e41,2021-01-05_01h25.37.880,Colour_Similarity_Experiment_v1,2020.1.2,Win32,60,5ff3a352adaa099f7659f8cc,,,,,,,,,,,,,,,,,,,,PF,,,,,,,,5,1.10089,,,,,,,,,,,,,,,,,,,,,,,,,,,,7,74,-42.5,1,0,0,response3disk,8,155,-12,0.5,1,0,0,rectangle,-12,0.5,1,0,0,6,5,0,0.00054,-12,0.5,1,0,0,0,154,154,140,1,,,,,,,,,,,,,,,,,,,,,
,,,,,,,,,,,,,,,,,,,,,,,,,,,,,,,,,,,,,,,,,,,5f1a3c1d94d028134ad46340,5ff3a3e383f6af98fc097e41,2021-01-05_01h25.37.880,Colour_Similarity_Experiment_v1,2020.1.2,Win32,60,5ff3a352adaa099f7659f8cc,,,,,,,,,,,,,,,,,,,,PF,,,,,,,,7,0.949345,,,,,,,,,,,,,,,,,,,,,,,,,,,,1,55,89.5,1,0,0,response1disk,2,156,-22,-11.5,1,0,0,rectangle,-22,-11.5,1,0,0,6,0,0,0.000715,-22,-11.5,1,0,0,0,155,155,24,1,,,,,,,,,,,,,,,,,,,,,
,,,,,,,,,,,,,,,,,,,,,,,,,,,,,,,,,,,,,,,,,,,5f1a3c1d94d028134ad46340,5ff3a3e383f6af98fc097e41,2021-01-05_01h25.37.880,Colour_Similarity_Experiment_v1,2020.1.2,Win32,60,5ff3a352adaa099f7659f8cc,,,,,,,,,,,,,,,,,,,,PF,,,,,,,,6,1.301565,,,,,,,,,,,,,,,,,,,,,,,,,,,,8,99,48.5,1,0,0,response1disk,2,157,17,5.5,1,0,0,rectangle,17,5.5,1,0,0,6,0,0,0.000495,17,5.5,1,0,0,0,156,156,83,1,,,,,,,,,,,,,,,,,,,,,
,,,,,,,,,,,,,,,,,,,,,,,,,,,,,,,,,,,,,,,,,,,5f1a3c1d94d028134ad46340,5ff3a3e383f6af98fc097e41,2021-01-05_01h25.37.880,Colour_Similarity_Experiment_v1,2020.1.2,Win32,60,5ff3a352adaa099f7659f8cc,,,,,,,,,,,,,,,,,,,,FF,,,,,,,,0,0.7834,,,,,,,,,,,,,,,,,,,,,,,,,,,,8,-65,95.5,1,0,0,response7disk,8,158,-6,-2.5,1,0,0,rectangle,-6,-2.5,1,0,0,6,6,0,0.000575,-6,-2.5,1,0,0,0,157,157,48,1,,,,,,,,,,,,,,,,,,,,,
,,,,,,,,,,,,,,,,,,,,,,,,,,,,,,,,,,,,,,,,,,,5f1a3c1d94d028134ad46340,5ff3a3e383f6af98fc097e41,2021-01-05_01h25.37.880,Colour_Similarity_Experiment_v1,2020.1.2,Win32,60,5ff3a352adaa099f7659f8cc,,,,,,,,,,,,,,,,,,,,FF,,,,,,,,6,1.35015,,,,,,,,,,,,,,,,,,,,,,,,,,,,8,92,48.5,1,0,0,response1disk,2,159,18,-0.5,1,0,0,rectangle,18,-0.5,1,0,0,6,3,0,0.00077,18,-0.5,1,0,0,0,158,158,22,1,,,,,,,,,,,,,,,,,,,,,
,,,,,,,,,,,,,,,,,,,,,,,,,,,,,,,,,,,,,,,,,,,5f1a3c1d94d028134ad46340,5ff3a3e383f6af98fc097e41,2021-01-05_01h25.37.880,Colour_Similarity_Experiment_v1,2020.1.2,Win32,60,5ff3a352adaa099f7659f8cc,,,,,,,,,,,,,,,,,,,,FF,,,,,,,,5,1.26618,,,,,,,,,,,,,,,,,,,,,,,,,,,,8,99,-39.5,1,0,0,response3disk,7,160,-24,9.5,1,0,0,rectangle,-24,9.5,1,0,0,6,2,0,0.00054,-24,9.5,1,0,0,0,159,159,86,1,,,,,,,,,,,,,,,,,,,,,
,,,,,,,,,,,,,,,,,,,,,,,,,,,,,,,,,,,,,,,,,,,5f1a3c1d94d028134ad46340,5ff3a3e383f6af98fc097e41,2021-01-05_01h25.37.880,Colour_Similarity_Experiment_v1,2020.1.2,Win32,60,5ff3a352adaa099f7659f8cc,,,,,,,,,,,,,,,,,,,,FF,,,,,,,,4,1.69938,,,,,,,,,,,,,,,,,,,,,,,,,,,,8,58,-80.5,1,0,0,response3disk,1,161,1,-3.5,1,0,0,rectangle,1,-3.5,1,0,0,6,5,0,0.000475,1,-3.5,1,0,0,0,160,160,20,1,,,,,,,,,,,,,,,,,,,,,
,,,,,,,,,,,,,,,,,,,,,,,,,,,,,,,,,,,,,,,,,,,5f1a3c1d94d028134ad46340,5ff3a3e383f6af98fc097e41,2021-01-05_01h25.37.880,Colour_Similarity_Experiment_v1,2020.1.2,Win32,60,5ff3a352adaa099f7659f8cc,,,,,,,,,,,,,,,,,,,,PF,,,,,,,,7,1.083455,,,,,,,,,,,,,,,,,,,,,,,,,,,,9,78,86.5,1,0,0,response1disk,5,162,20,-6.5,1,0,0,rectangle,20,-6.5,1,0,0,6,7,0,0.00068,20,-6.5,1,0,0,0,161,161,134,1,,,,,,,,,,,,,,,,,,,,,
,,,,,,,,,,,,,,,,,,,,,,,,,,,,,,,,,,,,,,,,,,,5f1a3c1d94d028134ad46340,5ff3a3e383f6af98fc097e41,2021-01-05_01h25.37.880,Colour_Similarity_Experiment_v1,2020.1.2,Win32,60,5ff3a352adaa099f7659f8cc,,,,,,,,,,,,,,,,,,,,,,,,,,,,,,,,,,,,,,,,,,,,,,,,,,,,,,,,,,,,,,,,,,,,,,,,,,,,,,,,,,,,,,,,,,,,,0,0,0,0,1,,,,,,,,,,,,,,
,,,,,,,,,,,,,,,,,,,,,,,,,,,,,,,,,,,,,,,,,,,5f1a3c1d94d028134ad46340,5ff3a3e383f6af98fc097e41,2021-01-05_01h25.37.880,Colour_Similarity_Experiment_v1,2020.1.2,Win32,60,5ff3a352adaa099f7659f8cc,,,,,,,,,,,,,,,,,,,,PF,,,,,,,,6,0.85967,,,,,,,,,,,,,,,,,,,,,,,,,,,,2,80,47.5,1,0,0,response1disk,5,163,23,3.5,1,0,0,rectangle,23,3.5,1,0,0,6,4,0,0.000795,23,3.5,1,0,0,0,0,0,147,1,,,,,,,,,,,,,,,,,,,,,
,,,,,,,,,,,,,,,,,,,,,,,,,,,,,,,,,,,,,,,,,,,5f1a3c1d94d028134ad46340,5ff3a3e383f6af98fc097e41,2021-01-05_01h25.37.880,Colour_Similarity_Experiment_v1,2020.1.2,Win32,60,5ff3a352adaa099f7659f8cc,,,,,,,,,,,,,,,,,,,,PF,,,,,,,,6,0.83263,,,,,,,,,,,,,,,,,,,,,,,,,,,,5,104,58.5,1,0,0,response1disk,9,164,5,-5.5,1,0,0,rectangle,42,83.5,1,0,0,7,7,1,1.515255,6,7.5,1,0,0,0,1,1,136,1,response1disk_3,rectangle,,,,,,,,,,,,,,,,,,,
,,,,,,,,,,,,,,,,,,,,,,,,,,,,,,,,,,,,,,,,,,,5f1a3c1d94d028134ad46340,5ff3a3e383f6af98fc097e41,2021-01-05_01h25.37.880,Colour_Similarity_Experiment_v1,2020.1.2,Win32,60,5ff3a352adaa099f7659f8cc,,,,,,,,,,,,,,,,,,,,PF,,,,,,,,4,1.283635,,,,,,,,,,,,,,,,,,,,,,,,,,,,5,65,-84.5,1,0,0,response3disk,2,165,14,11.5,1,0,0,rectangle,14,11.5,1,0,0,7,1,0,0.001095,14,11.5,1,0,0,0,2,2,129,1,,,,,,,,,,,,,,,,,,,,,
,,,,,,,,,,,,,,,,,,,,,,,,,,,,,,,,,,,,,,,,,,,5f1a3c1d94d028134ad46340,5ff3a3e383f6af98fc097e41,2021-01-05_01h25.37.880,Colour_Similarity_Experiment_v1,2020.1.2,Win32,60,5ff3a352adaa099f7659f8cc,,,,,,,,,,,,,,,,,,,,PF,,,,,,,,5,1.06733,,,,,,,,,,,,,,,,,,,,,,,,,,,,6,76,-31.5,1,0,0,response3disk,8,166,-4,9.5,1,0,0,rectangle,-4,9.5,1,0,0,7,1,0,0.000645,-4,9.5,1,0,0,0,3,3,64,1,,,,,,,,,,,,,,,,,,,,,
,,,,,,,,,,,,,,,,,,,,,,,,,,,,,,,,,,,,,,,,,,,5f1a3c1d94d028134ad46340,5ff3a3e383f6af98fc097e41,2021-01-05_01h25.37.880,Colour_Similarity_Experiment_v1,2020.1.2,Win32,60,5ff3a352adaa099f7659f8cc,,,,,,,,,,,,,,,,,,,,FF,,,,,,,,2,1.03333,,,,,,,,,,,,,,,,,,,,,,,,,,,,1,-80,-43.5,1,0,0,response5disk,9,167,1,-4.5,1,0,0,rectangle,1,-4.5,1,0,0,7,0,0,0.00059,1,-4.5,1,0,0,0,4,4,123,1,,,,,,,,,,,,,,,,,,,,,
,,,,,,,,,,,,,,,,,,,,,,,,,,,,,,,,,,,,,,,,,,,5f1a3c1d94d028134ad46340,5ff3a3e383f6af98fc097e41,2021-01-05_01h25.37.880,Colour_Similarity_Experiment_v1,2020.1.2,Win32,60,5ff3a352adaa099f7659f8cc,,,,,,,,,,,,,,,,,,,,PF,,,,,,,,1,0.69819,,,,,,,,,,,,,,,,,,,,,,,,,,,,3,-96,45.5,1,0,0,response7disk,5,168,-18,4.5,1,0,0,rectangle,-18,4.5,1,0,0,7,7,0,0.0006,-18,4.5,1,0,0,0,5,5,66,1,,,,,,,,,,,,,,,,,,,,,
,,,,,,,,,,,,,,,,,,,,,,,,,,,,,,,,,,,,,,,,,,,5f1a3c1d94d028134ad46340,5ff3a3e383f6af98fc097e41,2021-01-05_01h25.37.880,Colour_Similarity_Experiment_v1,2020.1.2,Win32,60,5ff3a352adaa099f7659f8cc,,,,,,,,,,,,,,,,,,,,PF,,,,,,,,0,0.830495,,,,,,,,,,,,,,,,,,,,,,,,,,,,9,-27,84.5,1,0,0,response7disk,9,169,10,3.5,1,0,0,rectangle,10,3.5,1,0,0,7,0,0,0.00062,10,3.5,1,0,0,0,6,6,106,1,,,,,,,,,,,,,,,,,,,,,
,,,,,,,,,,,,,,,,,,,,,,,,,,,,,,,,,,,,,,,,,,,5f1a3c1d94d028134ad46340,5ff3a3e383f6af98fc097e41,2021-01-05_01h25.37.880,Colour_Similarity_Experiment_v1,2020.1.2,Win32,60,5ff3a352adaa099f7659f8cc,,,,,,,,,,,,,,,,,,,,PF,,,,,,,,6,0.73328,,,,,,,,,,,,,,,,,,,,,,,,,,,,6,114,34.5,1,0,0,response1disk,2,170,6,-8.5,1,0,0,rectangle,6,-8.5,1,0,0,7,7,0,0.00054,6,-8.5,1,0,0,0,7,7,130,1,,,,,,,,,,,,,,,,,,,,,
,,,,,,,,,,,,,,,,,,,,,,,,,,,,,,,,,,,,,,,,,,,5f1a3c1d94d028134ad46340,5ff3a3e383f6af98fc097e41,2021-01-05_01h25.37.880,Colour_Similarity_Experiment_v1,2020.1.2,Win32,60,5ff3a352adaa099f7659f8cc,,,,,,,,,,,,,,,,,,,,FF,,,,,,,,0,0.8162,,,,,,,,,,,,,,,,,,,,,,,,,,,,1,-38,63.5,1,0,0,response7disk,1,171,-5,-12.5,1,0,0,rectangle,-5,-12.5,1,0,0,7,7,0,0.00111,-5,-12.5,1,0,0,0,8,8,151,1,,,,,,,,,,,,,,,,,,,,,
,,,,,,,,,,,,,,,,,,,,,,,,,,,,,,,,,,,,,,,,,,,5f1a3c1d94d028134ad46340,5ff3a3e383f6af98fc097e41,2021-01-05_01h25.37.880,Colour_Similarity_Experiment_v1,2020.1.2,Win32,60,5ff3a352adaa099f7659f8cc,,,,,,,,,,,,,,,,,,,,FF,,,,,,,,6,2.845785,,,,,,,,,,,,,,,,,,,,,,,,,,,,5,123,33.5,1,0,0,response1disk,8,172,2,-4.5,1,0,0,rectangle,2,-4.5,1,0,0,7,7,0,0.000485,2,-4.5,1,0,0,0,9,9,16,1,,,,,,,,,,,,,,,,,,,,,
,,,,,,,,,,,,,,,,,,,,,,,,,,,,,,,,,,,,,,,,,,,5f1a3c1d94d028134ad46340,5ff3a3e383f6af98fc097e41,2021-01-05_01h25.37.880,Colour_Similarity_Experiment_v1,2020.1.2,Win32,60,5ff3a352adaa099f7659f8cc,,,,,,,,,,,,,,,,,,,,PF,,,,,,,,0,0.7908,,,,,,,,,,,,,,,,,,,,,,,,,,,,6,-70,107.5,1,0,0,response7disk,6,173,-10,-10.5,1,0,0,rectangle,-10,-10.5,1,0,0,7,1,0,0.00053,-10,-10.5,1,0,0,0,10,10,0,1,,,,,,,,,,,,,,,,,,,,,
,,,,,,,,,,,,,,,,,,,,,,,,,,,,,,,,,,,,,,,,,,,5f1a3c1d94d028134ad46340,5ff3a3e383f6af98fc097e41,2021-01-05_01h25.37.880,Colour_Similarity_Experiment_v1,2020.1.2,Win32,60,5ff3a352adaa099f7659f8cc,,,,,,,,,,,,,,,,,,,,FF,,,,,,,,7,0.89902,,,,,,,,,,,,,,,,,,,,,,,,,,,,1,59,83.5,1,0,0,response1disk,7,174,17,10.5,1,0,0,rectangle,17,10.5,1,0,0,7,1,0,0.001005,17,10.5,1,0,0,0,11,11,137,1,,,,,,,,,,,,,,,,,,,,,
,,,,,,,,,,,,,,,,,,,,,,,,,,,,,,,,,,,,,,,,,,,5f1a3c1d94d028134ad46340,5ff3a3e383f6af98fc097e41,2021-01-05_01h25.37.880,Colour_Similarity_Experiment_v1,2020.1.2,Win32,60,5ff3a352adaa099f7659f8cc,,,,,,,,,,,,,,,,,,,,FF,,,,,,,,5,1.438685,,,,,,,,,,,,,,,,,,,,,,,,,,,,3,102,-38.5,1,0,0,response3disk,6,175,-1,-0.5,1,0,0,rectangle,-1,-0.5,1,0,0,7,2,0,0.000545,-1,-0.5,1,0,0,0,12,12,95,1,,,,,,,,,,,,,,,,,,,,,
,,,,,,,,,,,,,,,,,,,,,,,,,,,,,,,,,,,,,,,,,,,5f1a3c1d94d028134ad46340,5ff3a3e383f6af98fc097e41,2021-01-05_01h25.37.880,Colour_Similarity_Experiment_v1,2020.1.2,Win32,60,5ff3a352adaa099f7659f8cc,,,,,,,,,,,,,,,,,,,,PF,,,,,,,,6,0.88533,,,,,,,,,,,,,,,,,,,,,,,,,,,,2,105,47.5,1,0,0,response1disk,4,176,-4,0.5,1,0,0,rectangle,-4,0.5,1,0,0,7,7,0,0.00069,-4,0.5,1,0,0,0,13,13,127,1,,,,,,,,,,,,,,,,,,,,,
,,,,,,,,,,,,,,,,,,,,,,,,,,,,,,,,,,,,,,,,,,,5f1a3c1d94d028134ad46340,5ff3a3e383f6af98fc097e41,2021-01-05_01h25.37.880,Colour_Similarity_Experiment_v1,2020.1.2,Win32,60,5ff3a352adaa099f7659f8cc,,,,,,,,,,,,,,,,,,,,FF,,,,,,,,7,1.05182,,,,,,,,,,,,,,,,,,,,,,,,,,,,4,65,77.5,1,0,0,response1disk,6,177,27,5.5,1,0,0,rectangle,27,5.5,1,0,0,7,0,0,0.000635,27,5.5,1,0,0,0,14,14,122,1,,,,,,,,,,,,,,,,,,,,,
,,,,,,,,,,,,,,,,,,,,,,,,,,,,,,,,,,,,,,,,,,,5f1a3c1d94d028134ad46340,5ff3a3e383f6af98fc097e41,2021-01-05_01h25.37.880,Colour_Similarity_Experiment_v1,2020.1.2,Win32,60,5ff3a352adaa099f7659f8cc,,,,,,,,,,,,,,,,,,,,FF,,,,,,,,7,0.714545,,,,,,,,,,,,,,,,,,,,,,,,,,,,9,42,100.5,1,0,0,response1disk,2,178,-10,-9.5,1,0,0,rectangle,-60,44.5,1,0,0,1,1,1,1.265675,20,-8.5,1,0,0,0,15,15,11,1,response7disk_3,rectangle,,,,,,,,,,,,,,,,,,,
,,,,,,,,,,,,,,,,,,,,,,,,,,,,,,,,,,,,,,,,,,,5f1a3c1d94d028134ad46340,5ff3a3e383f6af98fc097e41,2021-01-05_01h25.37.880,Colour_Similarity_Experiment_v1,2020.1.2,Win32,60,5ff3a352adaa099f7659f8cc,,,,,,,,,,,,,,,,,,,,FF,,,,,,,,7,0.90046,,,,,,,,,,,,,,,,,,,,,,,,,,,,3,39,84.5,1,0,0,response1disk,7,179,20,-10.5,1,0,0,rectangle,20,-10.5,1,0,0,1,0,0,0.000615,20,-10.5,1,0,0,0,16,16,118,1,,,,,,,,,,,,,,,,,,,,,
,,,,,,,,,,,,,,,,,,,,,,,,,,,,,,,,,,,,,,,,,,,5f1a3c1d94d028134ad46340,5ff3a3e383f6af98fc097e41,2021-01-05_01h25.37.880,Colour_Similarity_Experiment_v1,2020.1.2,Win32,60,5ff3a352adaa099f7659f8cc,,,,,,,,,,,,,,,,,,,,PF,,,,,,,,6,1.05027,,,,,,,,,,,,,,,,,,,,,,,,,,,,1,100,50.5,1,0,0,response1disk,5,180,8,8.5,1,0,0,rectangle,8,8.5,1,0,0,1,7,0,0.000625,8,8.5,1,0,0,0,17,17,28,1,,,,,,,,,,,,,,,,,,,,,
,,,,,,,,,,,,,,,,,,,,,,,,,,,,,,,,,,,,,,,,,,,5f1a3c1d94d028134ad46340,5ff3a3e383f6af98fc097e41,2021-01-05_01h25.37.880,Colour_Similarity_Experiment_v1,2020.1.2,Win32,60,5ff3a352adaa099f7659f8cc,,,,,,,,,,,,,,,,,,,,PF,,,,,,,,6,0.96723,,,,,,,,,,,,,,,,,,,,,,,,,,,,2,104,29.5,1,0,0,response1disk,6,181,11,1.5,1,0,0,rectangle,11,1.5,1,0,0,1,5,0,0.000505,11,1.5,1,0,0,0,18,18,113,1,,,,,,,,,,,,,,,,,,,,,
,,,,,,,,,,,,,,,,,,,,,,,,,,,,,,,,,,,,,,,,,,,5f1a3c1d94d028134ad46340,5ff3a3e383f6af98fc097e41,2021-01-05_01h25.37.880,Colour_Similarity_Experiment_v1,2020.1.2,Win32,60,5ff3a352adaa099f7659f8cc,,,,,,,,,,,,,,,,,,,,FF,,,,,,,,2,2.10074,,,,,,,,,,,,,,,,,,,,,,,,,,,,5,-91,-56.5,1,0,0,response5disk,4,182,-33,5.5,1,0,0,rectangle,-33,5.5,1,0,0,1,7,0,0.000555,-33,5.5,1,0,0,0,19,19,8,1,,,,,,,,,,,,,,,,,,,,,
,,,,,,,,,,,,,,,,,,,,,,,,,,,,,,,,,,,,,,,,,,,5f1a3c1d94d028134ad46340,5ff3a3e383f6af98fc097e41,2021-01-05_01h25.37.880,Colour_Similarity_Experiment_v1,2020.1.2,Win32,60,5ff3a352adaa099f7659f8cc,,,,,,,,,,,,,,,,,,,,FF,,,,,,,,7,1.549805,,,,,,,,,,,,,,,,,,,,,,,,,,,,7,52,77.5,1,0,0,response1disk,2,183,4,2.5,1,0,0,rectangle,4,2.5,1,0,0,1,6,0,0.00065,4,2.5,1,0,0,0,20,20,138,1,,,,,,,,,,,,,,,,,,,,,
,,,,,,,,,,,,,,,,,,,,,,,,,,,,,,,,,,,,,,,,,,,5f1a3c1d94d028134ad46340,5ff3a3e383f6af98fc097e41,2021-01-05_01h25.37.880,Colour_Similarity_Experiment_v1,2020.1.2,Win32,60,5ff3a352adaa099f7659f8cc,,,,,,,,,,,,,,,,,,,,FF,,,,,,,,6,0.767395,,,,,,,,,,,,,,,,,,,,,,,,,,,,2,76,24.5,1,0,0,response1disk,5,184,2,-2.5,1,0,0,rectangle,2,-2.5,1,0,0,1,6,0,0.0005,2,-2.5,1,0,0,0,21,21,80,1,,,,,,,,,,,,,,,,,,,,,
,,,,,,,,,,,,,,,,,,,,,,,,,,,,,,,,,,,,,,,,,,,5f1a3c1d94d028134ad46340,5ff3a3e383f6af98fc097e41,2021-01-05_01h25.37.880,Colour_Similarity_Experiment_v1,2020.1.2,Win32,60,5ff3a352adaa099f7659f8cc,,,,,,,,,,,,,,,,,,,,PF,,,,,,,,2,1.79944,,,,,,,,,,,,,,,,,,,,,,,,,,,,2,-76,-29.5,1,0,0,response5disk,3,185,-11,-4.5,1,0,0,rectangle,-11,-4.5,1,0,0,1,1,0,0.000655,-11,-4.5,1,0,0,0,22,22,69,1,,,,,,,,,,,,,,,,,,,,,
,,,,,,,,,,,,,,,,,,,,,,,,,,,,,,,,,,,,,,,,,,,5f1a3c1d94d028134ad46340,5ff3a3e383f6af98fc097e41,2021-01-05_01h25.37.880,Colour_Similarity_Experiment_v1,2020.1.2,Win32,60,5ff3a352adaa099f7659f8cc,,,,,,,,,,,,,,,,,,,,FF,,,,,,,,1,0.85192,,,,,,,,,,,,,,,,,,,,,,,,,,,,9,-77,53.5,1,0,0,response7disk,8,186,-16,-0.5,1,0,0,rectangle,-16,-0.5,1,0,0,1,6,0,0.00048,-16,-0.5,1,0,0,0,23,23,6,1,,,,,,,,,,,,,,,,,,,,,
,,,,,,,,,,,,,,,,,,,,,,,,,,,,,,,,,,,,,,,,,,,5f1a3c1d94d028134ad46340,5ff3a3e383f6af98fc097e41,2021-01-05_01h25.37.880,Colour_Similarity_Experiment_v1,2020.1.2,Win32,60,5ff3a352adaa099f7659f8cc,,,,,,,,,,,,,,,,,,,,FF,,,,,,,,4,1.368515,,,,,,,,,,,,,,,,,,,,,,,,,,,,4,49,-94.5,1,0,0,response3disk,8,187,-10,10.5,1,0,0,rectangle,-10,10.5,1,0,0,1,2,0,0.000495,-10,10.5,1,0,0,0,24,24,35,1,,,,,,,,,,,,,,,,,,,,,
,,,,,,,,,,,,,,,,,,,,,,,,,,,,,,,,,,,,,,,,,,,5f1a3c1d94d028134ad46340,5ff3a3e383f6af98fc097e41,2021-01-05_01h25.37.880,Colour_Similarity_Experiment_v1,2020.1.2,Win32,60,5ff3a352adaa099f7659f8cc,,,,,,,,,,,,,,,,,,,,PF,,,,,,,,1,1.1301,,,,,,,,,,,,,,,,,,,,,,,,,,,,5,-92,46.5,1,0,0,response7disk,4,188,-8,5.5,1,0,0,rectangle,-8,5.5,1,0,0,1,5,0,0.000625,-8,5.5,1,0,0,0,25,25,54,1,,,,,,,,,,,,,,,,,,,,,
,,,,,,,,,,,,,,,,,,,,,,,,,,,,,,,,,,,,,,,,,,,5f1a3c1d94d028134ad46340,5ff3a3e383f6af98fc097e41,2021-01-05_01h25.37.880,Colour_Similarity_Experiment_v1,2020.1.2,Win32,60,5ff3a352adaa099f7659f8cc,,,,,,,,,,,,,,,,,,,,PF,,,,,,,,6,1.48606,,,,,,,,,,,,,,,,,,,,,,,,,,,,7,102,55.5,1,0,0,response1disk,9,189,-7,-0.5,1,0,0,rectangle,-7,-0.5,1,0,0,1,3,0,0.00085,-7,-0.5,1,0,0,0,26,26,10,1,,,,,,,,,,,,,,,,,,,,,
,,,,,,,,,,,,,,,,,,,,,,,,,,,,,,,,,,,,,,,,,,,5f1a3c1d94d028134ad46340,5ff3a3e383f6af98fc097e41,2021-01-05_01h25.37.880,Colour_Similarity_Experiment_v1,2020.1.2,Win32,60,5ff3a352adaa099f7659f8cc,,,,,,,,,,,,,,,,,,,,FF,,,,,,,,6,1.660805,,,,,,,,,,,,,,,,,,,,,,,,,,,,2,121,39.5,1,0,0,response1disk,7,190,0,6.5,1,0,0,rectangle,0,6.5,1,0,0,1,5,0,0.000575,0,6.5,1,0,0,0,27,27,63,1,,,,,,,,,,,,,,,,,,,,,
,,,,,,,,,,,,,,,,,,,,,,,,,,,,,,,,,,,,,,,,,,,5f1a3c1d94d028134ad46340,5ff3a3e383f6af98fc097e41,2021-01-05_01h25.37.880,Colour_Similarity_Experiment_v1,2020.1.2,Win32,60,5ff3a352adaa099f7659f8cc,,,,,,,,,,,,,,,,,,,,FF,,,,,,,,6,1.44574,,,,,,,,,,,,,,,,,,,,,,,,,,,,9,103,55.5,1,0,0,response1disk,7,191,-5,-8.5,1,0,0,rectangle,-5,-8.5,1,0,0,1,7,0,0.00052,-5,-8.5,1,0,0,0,28,28,100,1,,,,,,,,,,,,,,,,,,,,,
,,,,,,,,,,,,,,,,,,,,,,,,,,,,,,,,,,,,,,,,,,,5f1a3c1d94d028134ad46340,5ff3a3e383f6af98fc097e41,2021-01-05_01h25.37.880,Colour_Similarity_Experiment_v1,2020.1.2,Win32,60,5ff3a352adaa099f7659f8cc,,,,,,,,,,,,,,,,,,,,FF,,,,,,,,5,1.07346,,,,,,,,,,,,,,,,,,,,,,,,,,,,9,83,-54.5,1,0,0,response3disk,3,192,-4,-10.5,1,0,0,rectangle,-4,-10.5,1,0,0,1,7,0,0.00054,-4,-10.5,1,0,0,0,29,29,141,1,,,,,,,,,,,,,,,,,,,,,
,,,,,,,,,,,,,,,,,,,,,,,,,,,,,,,,,,,,,,,,,,,5f1a3c1d94d028134ad46340,5ff3a3e383f6af98fc097e41,2021-01-05_01h25.37.880,Colour_Similarity_Experiment_v1,2020.1.2,Win32,60,5ff3a352adaa099f7659f8cc,,,,,,,,,,,,,,,,,,,,FF,,,,,,,,0,0.865085,,,,,,,,,,,,,,,,,,,,,,,,,,,,6,-23,92.5,1,0,0,response7disk,6,193,-9,8.5,1,0,0,rectangle,-9,8.5,1,0,0,1,2,0,0.00055,-9,8.5,1,0,0,0,30,30,91,1,,,,,,,,,,,,,,,,,,,,,
,,,,,,,,,,,,,,,,,,,,,,,,,,,,,,,,,,,,,,,,,,,5f1a3c1d94d028134ad46340,5ff3a3e383f6af98fc097e41,2021-01-05_01h25.37.880,Colour_Similarity_Experiment_v1,2020.1.2,Win32,60,5ff3a352adaa099f7659f8cc,,,,,,,,,,,,,,,,,,,,FF,,,,,,,,7,1.054435,,,,,,,,,,,,,,,,,,,,,,,,,,,,6,73,113.5,1,0,0,response1disk,3,194,15,15.5,1,0,0,rectangle,15,15.5,1,0,0,1,3,0,0.001035,15,15.5,1,0,0,0,31,31,21,1,,,,,,,,,,,,,,,,,,,,,
,,,,,,,,,,,,,,,,,,,,,,,,,,,,,,,,,,,,,,,,,,,5f1a3c1d94d028134ad46340,5ff3a3e383f6af98fc097e41,2021-01-05_01h25.37.880,Colour_Similarity_Experiment_v1,2020.1.2,Win32,60,5ff3a352adaa099f7659f8cc,,,,,,,,,,,,,,,,,,,,PF,,,,,,,,7,0.801435,,,,,,,,,,,,,,,,,,,,,,,,,,,,1,49,112.5,1,0,0,response1disk,4,195,1,4.5,1,0,0,rectangle,1,4.5,1,0,0,1,0,0,0.0006,1,4.5,1,0,0,0,32,32,139,1,,,,,,,,,,,,,,,,,,,,,
,,,,,,,,,,,,,,,,,,,,,,,,,,,,,,,,,,,,,,,,,,,5f1a3c1d94d028134ad46340,5ff3a3e383f6af98fc097e41,2021-01-05_01h25.37.880,Colour_Similarity_Experiment_v1,2020.1.2,Win32,60,5ff3a352adaa099f7659f8cc,,,,,,,,,,,,,,,,,,,,FF,,,,,,,,7,1.09815,,,,,,,,,,,,,,,,,,,,,,,,,,,,2,84,102.5,1,0,0,response1disk,8,196,12,14.5,1,0,0,rectangle,12,14.5,1,0,0,1,7,0,0.000525,12,14.5,1,0,0,0,33,33,62,1,,,,,,,,,,,,,,,,,,,,,
,,,,,,,,,,,,,,,,,,,,,,,,,,,,,,,,,,,,,,,,,,,5f1a3c1d94d028134ad46340,5ff3a3e383f6af98fc097e41,2021-01-05_01h25.37.880,Colour_Similarity_Experiment_v1,2020.1.2,Win32,60,5ff3a352adaa099f7659f8cc,,,,,,,,,,,,,,,,,,,,PF,,,,,,,,3,1.394135,,,,,,,,,,,,,,,,,,,,,,,,,,,,1,-56,-83.5,1,0,0,response5disk,9,197,-10,16.5,1,0,0,rectangle,-10,16.5,1,0,0,1,2,0,0.000545,-10,16.5,1,0,0,0,34,34,15,1,,,,,,,,,,,,,,,,,,,,,
,,,,,,,,,,,,,,,,,,,,,,,,,,,,,,,,,,,,,,,,,,,5f1a3c1d94d028134ad46340,5ff3a3e383f6af98fc097e41,2021-01-05_01h25.37.880,Colour_Similarity_Experiment_v1,2020.1.2,Win32,60,5ff3a352adaa099f7659f8cc,,,,,,,,,,,,,,,,,,,,FF,,,,,,,,5,1.0148,,,,,,,,,,,,,,,,,,,,,,,,,,,,8,63,-54.5,1,0,0,response3disk,5,198,-5,-7.5,1,0,0,rectangle,-5,-7.5,1,0,0,1,4,0,0.000815,-5,-7.5,1,0,0,0,35,35,152,1,,,,,,,,,,,,,,,,,,,,,
,,,,,,,,,,,,,,,,,,,,,,,,,,,,,,,,,,,,,,,,,,,5f1a3c1d94d028134ad46340,5ff3a3e383f6af98fc097e41,2021-01-05_01h25.37.880,Colour_Similarity_Experiment_v1,2020.1.2,Win32,60,5ff3a352adaa099f7659f8cc,,,,,,,,,,,,,,,,,,,,FF,,,,,,,,2,2.216665,,,,,,,,,,,,,,,,,,,,,,,,,,,,9,-75,-19.5,1,0,0,response5disk,1,199,-4,2.5,1,0,0,rectangle,-4,2.5,1,0,0,1,4,0,0.000515,-4,2.5,1,0,0,0,36,36,111,1,,,,,,,,,,,,,,,,,,,,,
,,,,,,,,,,,,,,,,,,,,,,,,,,,,,,,,,,,,,,,,,,,5f1a3c1d94d028134ad46340,5ff3a3e383f6af98fc097e41,2021-01-05_01h25.37.880,Colour_Similarity_Experiment_v1,2020.1.2,Win32,60,5ff3a352adaa099f7659f8cc,,,,,,,,,,,,,,,,,,,,PF,,,,,,,,6,3.834675,,,,,,,,,,,,,,,,,,,,,,,,,,,,3,95,34.5,1,0,0,response1disk,9,200,13,-10.5,1,0,0,rectangle,13,-10.5,1,0,0,1,6,0,0.000605,13,-10.5,1,0,0,0,37,37,79,1,,,,,,,,,,,,,,,,,,,,,
,,,,,,,,,,,,,,,,,,,,,,,,,,,,,,,,,,,,,,,,,,,5f1a3c1d94d028134ad46340,5ff3a3e383f6af98fc097e41,2021-01-05_01h25.37.880,Colour_Similarity_Experiment_v1,2020.1.2,Win32,60,5ff3a352adaa099f7659f8cc,,,,,,,,,,,,,,,,,,,,PF,,,,,,,,5,0.83325,,,,,,,,,,,,,,,,,,,,,,,,,,,,4,103,-48.5,1,0,0,response3disk,2,201,-6,-8.5,1,0,0,rectangle,-6,-8.5,1,0,0,1,3,0,0.00069,-6,-8.5,1,0,0,0,38,38,108,1,,,,,,,,,,,,,,,,,,,,,
,,,,,,,,,,,,,,,,,,,,,,,,,,,,,,,,,,,,,,,,,,,5f1a3c1d94d028134ad46340,5ff3a3e383f6af98fc097e41,2021-01-05_01h25.37.880,Colour_Similarity_Experiment_v1,2020.1.2,Win32,60,5ff3a352adaa099f7659f8cc,,,,,,,,,,,,,,,,,,,,PF,,,,,,,,1,0.80105,,,,,,,,,,,,,,,,,,,,,,,,,,,,6,-99,67.5,1,0,0,response7disk,5,202,-2,-0.5,1,0,0,rectangle,-2,-0.5,1,0,0,1,5,0,0.000435,-2,-0.5,1,0,0,0,39,39,59,1,,,,,,,,,,,,,,,,,,,,,
,,,,,,,,,,,,,,,,,,,,,,,,,,,,,,,,,,,,,,,,,,,5f1a3c1d94d028134ad46340,5ff3a3e383f6af98fc097e41,2021-01-05_01h25.37.880,Colour_Similarity_Experiment_v1,2020.1.2,Win32,60,5ff3a352adaa099f7659f8cc,,,,,,,,,,,,,,,,,,,,PF,,,,,,,,3,0.903935,,,,,,,,,,,,,,,,,,,,,,,,,,,,3,-28,-86.5,1,0,0,response5disk,2,203,29,-9.5,1,0,0,rectangle,-36,-98.5,1,0,0,3,3,1,1.7817,9,-11.5,1,0,0,0,40,40,36,1,response5disk_3,rectangle,,,,,,,,,,,,,,,,,,,
,,,,,,,,,,,,,,,,,,,,,,,,,,,,,,,,,,,,,,,,,,,5f1a3c1d94d028134ad46340,5ff3a3e383f6af98fc097e41,2021-01-05_01h25.37.880,Colour_Similarity_Experiment_v1,2020.1.2,Win32,60,5ff3a352adaa099f7659f8cc,,,,,,,,,,,,,,,,,,,,FF,,,,,,,,4,1.05392,,,,,,,,,,,,,,,,,,,,,,,,,,,,9,58,-113.5,1,0,0,response3disk,6,204,17,3.5,1,0,0,rectangle,17,3.5,1,0,0,3,3,0,0.00053,17,3.5,1,0,0,0,41,41,117,1,,,,,,,,,,,,,,,,,,,,,
,,,,,,,,,,,,,,,,,,,,,,,,,,,,,,,,,,,,,,,,,,,5f1a3c1d94d028134ad46340,5ff3a3e383f6af98fc097e41,2021-01-05_01h25.37.880,Colour_Similarity_Experiment_v1,2020.1.2,Win32,60,5ff3a352adaa099f7659f8cc,,,,,,,,,,,,,,,,,,,,PF,,,,,,,,2,1.93027,,,,,,,,,,,,,,,,,,,,,,,,,,,,7,-102,-41.5,1,0,0,response5disk,8,205,8,-0.5,1,0,0,rectangle,8,-0.5,1,0,0,3,4,0,0.0005,8,-0.5,1,0,0,0,42,42,140,1,,,,,,,,,,,,,,,,,,,,,
,,,,,,,,,,,,,,,,,,,,,,,,,,,,,,,,,,,,,,,,,,,5f1a3c1d94d028134ad46340,5ff3a3e383f6af98fc097e41,2021-01-05_01h25.37.880,Colour_Similarity_Experiment_v1,2020.1.2,Win32,60,5ff3a352adaa099f7659f8cc,,,,,,,,,,,,,,,,,,,,PF,,,,,,,,6,0.95046,,,,,,,,,,,,,,,,,,,,,,,,,,,,7,121,42.5,1,0,0,response1disk,4,206,-13,-1.5,1,0,0,rectangle,-13,-1.5,1,0,0,3,2,0,0.00061,-13,-1.5,1,0,0,0,43,43,43,1,,,,,,,,,,,,,,,,,,,,,
,,,,,,,,,,,,,,,,,,,,,,,,,,,,,,,,,,,,,,,,,,,5f1a3c1d94d028134ad46340,5ff3a3e383f6af98fc097e41,2021-01-05_01h25.37.880,Colour_Similarity_Experiment_v1,2020.1.2,Win32,60,5ff3a352adaa099f7659f8cc,,,,,,,,,,,,,,,,,,,,FF,,,,,,,,7,0.74083,,,,,,,,,,,,,,,,,,,,,,,,,,,,8,28,74.5,1,0,0,response1disk,2,207,-5,-0.5,1,0,0,rectangle,-5,-0.5,1,0,0,3,3,0,0.000525,-5,-0.5,1,0,0,0,44,44,22,1,,,,,,,,,,,,,,,,,,,,,
,,,,,,,,,,,,,,,,,,,,,,,,,,,,,,,,,,,,,,,,,,,5f1a3c1d94d028134ad46340,5ff3a3e383f6af98fc097e41,2021-01-05_01h25.37.880,Colour_Similarity_Experiment_v1,2020.1.2,Win32,60,5ff3a352adaa099f7659f8cc,,,,,,,,,,,,,,,,,,,,FF,,,,,,,,0,0.78718,,,,,,,,,,,,,,,,,,,,,,,,,,,,4,-54,96.5,1,0,0,response7disk,4,208,-7,-4.5,1,0,0,rectangle,-7,-4.5,1,0,0,3,6,0,0.00088,-7,-4.5,1,0,0,0,45,45,84,1,,,,,,,,,,,,,,,,,,,,,
,,,,,,,,,,,,,,,,,,,,,,,,,,,,,,,,,,,,,,,,,,,5f1a3c1d94d028134ad46340,5ff3a3e383f6af98fc097e41,2021-01-05_01h25.37.880,Colour_Similarity_Experiment_v1,2020.1.2,Win32,60,5ff3a352adaa099f7659f8cc,,,,,,,,,,,,,,,,,,,,FF,,,,,,,,0,0.56178,,,,,,,,,,,,,,,,,,,,,,,,,,,,8,-42,90.5,1,0,0,response7disk,8,209,2,1.5,1,0,0,rectangle,2,1.5,1,0,0,3,2,0,0.000595,2,1.5,1,0,0,0,46,46,48,1,,,,,,,,,,,,,,,,,,,,,
,,,,,,,,,,,,,,,,,,,,,,,,,,,,,,,,,,,,,,,,,,,5f1a3c1d94d028134ad46340,5ff3a3e383f6af98fc097e41,2021-01-05_01h25.37.880,Colour_Similarity_Experiment_v1,2020.1.2,Win32,60,5ff3a352adaa099f7659f8cc,,,,,,,,,,,,,,,,,,,,PF,,,,,,,,3,1.19423,,,,,,,,,,,,,,,,,,,,,,,,,,,,1,-54,-91.5,1,0,0,response5disk,8,210,-5,5.5,1,0,0,rectangle,-5,5.5,1,0,0,3,6,0,0.000515,-5,5.5,1,0,0,0,47,47,65,1,,,,,,,,,,,,,,,,,,,,,
,,,,,,,,,,,,,,,,,,,,,,,,,,,,,,,,,,,,,,,,,,,5f1a3c1d94d028134ad46340,5ff3a3e383f6af98fc097e41,2021-01-05_01h25.37.880,Colour_Similarity_Experiment_v1,2020.1.2,Win32,60,5ff3a352adaa099f7659f8cc,,,,,,,,,,,,,,,,,,,,PF,,,,,,,,0,0.66565,,,,,,,,,,,,,,,,,,,,,,,,,,,,2,-38,87.5,1,0,0,response7disk,2,211,8,7.5,1,0,0,rectangle,8,7.5,1,0,0,3,2,0,0.000945,8,7.5,1,0,0,0,48,48,14,1,,,,,,,,,,,,,,,,,,,,,
,,,,,,,,,,,,,,,,,,,,,,,,,,,,,,,,,,,,,,,,,,,5f1a3c1d94d028134ad46340,5ff3a3e383f6af98fc097e41,2021-01-05_01h25.37.880,Colour_Similarity_Experiment_v1,2020.1.2,Win32,60,5ff3a352adaa099f7659f8cc,,,,,,,,,,,,,,,,,,,,FF,,,,,,,,2,1.067255,,,,,,,,,,,,,,,,,,,,,,,,,,,,7,-87,-52.5,1,0,0,response5disk,5,212,6,1.5,1,0,0,rectangle,6,1.5,1,0,0,3,3,0,0.00048,6,1.5,1,0,0,0,49,49,156,1,,,,,,,,,,,,,,,,,,,,,
,,,,,,,,,,,,,,,,,,,,,,,,,,,,,,,,,,,,,,,,,,,5f1a3c1d94d028134ad46340,5ff3a3e383f6af98fc097e41,2021-01-05_01h25.37.880,Colour_Similarity_Experiment_v1,2020.1.2,Win32,60,5ff3a352adaa099f7659f8cc,,,,,,,,,,,,,,,,,,,,PF,,,,,,,,7,1.062415,,,,,,,,,,,,,,,,,,,,,,,,,,,,5,40,110.5,1,0,0,response1disk,1,213,-3,-3.5,1,0,0,rectangle,43,-101.5,1,0,0,4,4,1,1.708725,-4,-4.5,1,0,0,0,50,50,159,1,response3disk_3,rectangle,,,,,,,,,,,,,,,,,,,
,,,,,,,,,,,,,,,,,,,,,,,,,,,,,,,,,,,,,,,,,,,5f1a3c1d94d028134ad46340,5ff3a3e383f6af98fc097e41,2021-01-05_01h25.37.880,Colour_Similarity_Experiment_v1,2020.1.2,Win32,60,5ff3a352adaa099f7659f8cc,,,,,,,,,,,,,,,,,,,,PF,,,,,,,,7,0.79985,,,,,,,,,,,,,,,,,,,,,,,,,,,,7,49,88.5,1,0,0,response1disk,1,214,14,6.5,1,0,0,rectangle,14,6.5,1,0,0,4,1,0,0.000545,14,6.5,1,0,0,0,51,51,53,1,,,,,,,,,,,,,,,,,,,,,
,,,,,,,,,,,,,,,,,,,,,,,,,,,,,,,,,,,,,,,,,,,5f1a3c1d94d028134ad46340,5ff3a3e383f6af98fc097e41,2021-01-05_01h25.37.880,Colour_Similarity_Experiment_v1,2020.1.2,Win32,60,5ff3a352adaa099f7659f8cc,,,,,,,,,,,,,,,,,,,,FF,,,,,,,,3,1.00059,,,,,,,,,,,,,,,,,,,,,,,,,,,,2,-40,-89.5,1,0,0,response5disk,3,215,-28,9.5,1,0,0,rectangle,28,-116.5,1,0,0,4,4,1,1.656705,-7,-10.5,1,0,0,0,52,52,104,1,response3disk_3,rectangle,,,,,,,,,,,,,,,,,,,
,,,,,,,,,,,,,,,,,,,,,,,,,,,,,,,,,,,,,,,,,,,5f1a3c1d94d028134ad46340,5ff3a3e383f6af98fc097e41,2021-01-05_01h25.37.880,Colour_Similarity_Experiment_v1,2020.1.2,Win32,60,5ff3a352adaa099f7659f8cc,,,,,,,,,,,,,,,,,,,,FF,,,,,,,,0,0.701475,,,,,,,,,,,,,,,,,,,,,,,,,,,,2,-37,98.5,1,0,0,response7disk,2,216,7,10.5,1,0,0,rectangle,7,10.5,1,0,0,4,3,0,0.00052,7,10.5,1,0,0,0,53,53,142,1,,,,,,,,,,,,,,,,,,,,,
,,,,,,,,,,,,,,,,,,,,,,,,,,,,,,,,,,,,,,,,,,,5f1a3c1d94d028134ad46340,5ff3a3e383f6af98fc097e41,2021-01-05_01h25.37.880,Colour_Similarity_Experiment_v1,2020.1.2,Win32,60,5ff3a352adaa099f7659f8cc,,,,,,,,,,,,,,,,,,,,FF,,,,,,,,5,1.37596,,,,,,,,,,,,,,,,,,,,,,,,,,,,3,83,-53.5,1,0,0,response3disk,8,217,4,-0.5,1,0,0,rectangle,4,-0.5,1,0,0,4,7,0,0.000795,4,-0.5,1,0,0,0,54,54,44,1,,,,,,,,,,,,,,,,,,,,,
,,,,,,,,,,,,,,,,,,,,,,,,,,,,,,,,,,,,,,,,,,,5f1a3c1d94d028134ad46340,5ff3a3e383f6af98fc097e41,2021-01-05_01h25.37.880,Colour_Similarity_Experiment_v1,2020.1.2,Win32,60,5ff3a352adaa099f7659f8cc,,,,,,,,,,,,,,,,,,,,PF,,,,,,,,7,0.859215,,,,,,,,,,,,,,,,,,,,,,,,,,,,7,43,68.5,1,0,0,response1disk,2,218,4,13.5,1,0,0,rectangle,4,13.5,1,0,0,4,2,0,0.00079,4,13.5,1,0,0,0,55,55,32,1,,,,,,,,,,,,,,,,,,,,,
,,,,,,,,,,,,,,,,,,,,,,,,,,,,,,,,,,,,,,,,,,,5f1a3c1d94d028134ad46340,5ff3a3e383f6af98fc097e41,2021-01-05_01h25.37.880,Colour_Similarity_Experiment_v1,2020.1.2,Win32,60,5ff3a352adaa099f7659f8cc,,,,,,,,,,,,,,,,,,,,PF,,,,,,,,6,0.96098,,,,,,,,,,,,,,,,,,,,,,,,,,,,4,97,45.5,1,0,0,response1disk,5,219,8,2.5,1,0,0,rectangle,8,2.5,1,0,0,4,2,0,0.000645,8,2.5,1,0,0,0,56,56,49,1,,,,,,,,,,,,,,,,,,,,,
,,,,,,,,,,,,,,,,,,,,,,,,,,,,,,,,,,,,,,,,,,,5f1a3c1d94d028134ad46340,5ff3a3e383f6af98fc097e41,2021-01-05_01h25.37.880,Colour_Similarity_Experiment_v1,2020.1.2,Win32,60,5ff3a352adaa099f7659f8cc,,,,,,,,,,,,,,,,,,,,FF,,,,,,,,2,1.345575,,,,,,,,,,,,,,,,,,,,,,,,,,,,7,-85,-46.5,1,0,0,response5disk,8,220,-13,-5.5,1,0,0,rectangle,115,40.5,1,0,0,6,6,1,1.96539,5,-8.5,1,0,0,0,57,57,97,1,response1disk_3,rectangle,,,,,,,,,,,,,,,,,,,
,,,,,,,,,,,,,,,,,,,,,,,,,,,,,,,,,,,,,,,,,,,5f1a3c1d94d028134ad46340,5ff3a3e383f6af98fc097e41,2021-01-05_01h25.37.880,Colour_Similarity_Experiment_v1,2020.1.2,Win32,60,5ff3a352adaa099f7659f8cc,,,,,,,,,,,,,,,,,,,,PF,,,,,,,,6,0.95456,,,,,,,,,,,,,,,,,,,,,,,,,,,,9,84,53.5,1,0,0,response1disk,2,221,-22,7.5,1,0,0,rectangle,-22,7.5,1,0,0,6,2,0,0.000975,-22,7.5,1,0,0,0,58,58,157,1,,,,,,,,,,,,,,,,,,,,,
,,,,,,,,,,,,,,,,,,,,,,,,,,,,,,,,,,,,,,,,,,,5f1a3c1d94d028134ad46340,5ff3a3e383f6af98fc097e41,2021-01-05_01h25.37.880,Colour_Similarity_Experiment_v1,2020.1.2,Win32,60,5ff3a352adaa099f7659f8cc,,,,,,,,,,,,,,,,,,,,FF,,,,,,,,7,0.964955,,,,,,,,,,,,,,,,,,,,,,,,,,,,5,43,98.5,1,0,0,response1disk,7,222,9,-2.5,1,0,0,rectangle,9,-2.5,1,0,0,6,0,0,0.000635,9,-2.5,1,0,0,0,59,59,7,1,,,,,,,,,,,,,,,,,,,,,
,,,,,,,,,,,,,,,,,,,,,,,,,,,,,,,,,,,,,,,,,,,5f1a3c1d94d028134ad46340,5ff3a3e383f6af98fc097e41,2021-01-05_01h25.37.880,Colour_Similarity_Experiment_v1,2020.1.2,Win32,60,5ff3a352adaa099f7659f8cc,,,,,,,,,,,,,,,,,,,,PF,,,,,,,,7,1.13597,,,,,,,,,,,,,,,,,,,,,,,,,,,,6,45,90.5,1,0,0,response1disk,1,223,4,1.5,1,0,0,rectangle,4,1.5,1,0,0,6,0,0,0.000875,4,1.5,1,0,0,0,60,60,46,1,,,,,,,,,,,,,,,,,,,,,
,,,,,,,,,,,,,,,,,,,,,,,,,,,,,,,,,,,,,,,,,,,5f1a3c1d94d028134ad46340,5ff3a3e383f6af98fc097e41,2021-01-05_01h25.37.880,Colour_Similarity_Experiment_v1,2020.1.2,Win32,60,5ff3a352adaa099f7659f8cc,,,,,,,,,,,,,,,,,,,,PF,,,,,,,,5,0.897915,,,,,,,,,,,,,,,,,,,,,,,,,,,,8,106,-58.5,1,0,0,response3disk,2,224,5,-12.5,1,0,0,rectangle,5,-12.5,1,0,0,6,4,0,0.000665,5,-12.5,1,0,0,0,61,61,83,1,,,,,,,,,,,,,,,,,,,,,
,,,,,,,,,,,,,,,,,,,,,,,,,,,,,,,,,,,,,,,,,,,5f1a3c1d94d028134ad46340,5ff3a3e383f6af98fc097e41,2021-01-05_01h25.37.880,Colour_Similarity_Experiment_v1,2020.1.2,Win32,60,5ff3a352adaa099f7659f8cc,,,,,,,,,,,,,,,,,,,,FF,,,,,,,,6,1.384105,,,,,,,,,,,,,,,,,,,,,,,,,,,,1,101,49.5,1,0,0,response1disk,2,225,-14,9.5,1,0,0,rectangle,-14,9.5,1,0,0,6,6,0,0.00064,-14,9.5,1,0,0,0,62,62,2,1,,,,,,,,,,,,,,,,,,,,,
,,,,,,,,,,,,,,,,,,,,,,,,,,,,,,,,,,,,,,,,,,,5f1a3c1d94d028134ad46340,5ff3a3e383f6af98fc097e41,2021-01-05_01h25.37.880,Colour_Similarity_Experiment_v1,2020.1.2,Win32,60,5ff3a352adaa099f7659f8cc,,,,,,,,,,,,,,,,,,,,PF,,,,,,,,7,0.93475,,,,,,,,,,,,,,,,,,,,,,,,,,,,9,57,93.5,1,0,0,response1disk,3,226,6,8.5,1,0,0,rectangle,6,8.5,1,0,0,6,0,0,0.000675,6,8.5,1,0,0,0,63,63,119,1,,,,,,,,,,,,,,,,,,,,,
,,,,,,,,,,,,,,,,,,,,,,,,,,,,,,,,,,,,,,,,,,,5f1a3c1d94d028134ad46340,5ff3a3e383f6af98fc097e41,2021-01-05_01h25.37.880,Colour_Similarity_Experiment_v1,2020.1.2,Win32,60,5ff3a352adaa099f7659f8cc,,,,,,,,,,,,,,,,,,,,PF,,,,,,,,7,0.869165,,,,,,,,,,,,,,,,,,,,,,,,,,,,6,48,91.5,1,0,0,response1disk,9,227,3,-7.5,1,0,0,rectangle,3,-7.5,1,0,0,6,5,0,0.00084,3,-7.5,1,0,0,0,64,64,45,1,,,,,,,,,,,,,,,,,,,,,
,,,,,,,,,,,,,,,,,,,,,,,,,,,,,,,,,,,,,,,,,,,5f1a3c1d94d028134ad46340,5ff3a3e383f6af98fc097e41,2021-01-05_01h25.37.880,Colour_Similarity_Experiment_v1,2020.1.2,Win32,60,5ff3a352adaa099f7659f8cc,,,,,,,,,,,,,,,,,,,,FF,,,,,,,,2,1.08472,,,,,,,,,,,,,,,,,,,,,,,,,,,,6,-87,-50.5,1,0,0,response5disk,5,228,17,-16.5,1,0,0,rectangle,17,-16.5,1,0,0,5,0,0,0.000635,17,-16.5,1,0,0,0,65,65,126,1,,,,,,,,,,,,,,,,,,,,,
,,,,,,,,,,,,,,,,,,,,,,,,,,,,,,,,,,,,,,,,,,,5f1a3c1d94d028134ad46340,5ff3a3e383f6af98fc097e41,2021-01-05_01h25.37.880,Colour_Similarity_Experiment_v1,2020.1.2,Win32,60,5ff3a352adaa099f7659f8cc,,,,,,,,,,,,,,,,,,,,FF,,,,,,,,6,0.96718,,,,,,,,,,,,,,,,,,,,,,,,,,,,5,84,43.5,1,0,0,response1disk,2,229,14,7.5,1,0,0,rectangle,38,-100.5,1,0,0,4,4,1,1.266835,-6,-3.5,1,0,0,0,66,66,55,1,response3disk_3,rectangle,,,,,,,,,,,,,,,,,,,
,,,,,,,,,,,,,,,,,,,,,,,,,,,,,,,,,,,,,,,,,,,5f1a3c1d94d028134ad46340,5ff3a3e383f6af98fc097e41,2021-01-05_01h25.37.880,Colour_Similarity_Experiment_v1,2020.1.2,Win32,60,5ff3a352adaa099f7659f8cc,,,,,,,,,,,,,,,,,,,,FF,,,,,,,,1,1.433555,,,,,,,,,,,,,,,,,,,,,,,,,,,,3,-95,36.5,1,0,0,response7disk,5,230,18,-12.5,1,0,0,rectangle,18,-12.5,1,0,0,4,3,0,0.000525,18,-12.5,1,0,0,0,67,67,101,1,,,,,,,,,,,,,,,,,,,,,
,,,,,,,,,,,,,,,,,,,,,,,,,,,,,,,,,,,,,,,,,,,5f1a3c1d94d028134ad46340,5ff3a3e383f6af98fc097e41,2021-01-05_01h25.37.880,Colour_Similarity_Experiment_v1,2020.1.2,Win32,60,5ff3a352adaa099f7659f8cc,,,,,,,,,,,,,,,,,,,,FF,,,,,,,,1,0.98347,,,,,,,,,,,,,,,,,,,,,,,,,,,,3,-83,45.5,1,0,0,response7disk,4,231,5,4.5,1,0,0,rectangle,5,4.5,1,0,0,4,2,0,0.000725,5,4.5,1,0,0,0,68,68,110,1,,,,,,,,,,,,,,,,,,,,,
,,,,,,,,,,,,,,,,,,,,,,,,,,,,,,,,,,,,,,,,,,,5f1a3c1d94d028134ad46340,5ff3a3e383f6af98fc097e41,2021-01-05_01h25.37.880,Colour_Similarity_Experiment_v1,2020.1.2,Win32,60,5ff3a352adaa099f7659f8cc,,,,,,,,,,,,,,,,,,,,FF,,,,,,,,1,1.001925,,,,,,,,,,,,,,,,,,,,,,,,,,,,8,-102,42.5,1,0,0,response7disk,9,232,8,-13.5,1,0,0,rectangle,8,-13.5,1,0,0,4,5,0,0.00059,8,-13.5,1,0,0,0,69,69,105,1,,,,,,,,,,,,,,,,,,,,,
,,,,,,,,,,,,,,,,,,,,,,,,,,,,,,,,,,,,,,,,,,,5f1a3c1d94d028134ad46340,5ff3a3e383f6af98fc097e41,2021-01-05_01h25.37.880,Colour_Similarity_Experiment_v1,2020.1.2,Win32,60,5ff3a352adaa099f7659f8cc,,,,,,,,,,,,,,,,,,,,PF,,,,,,,,7,1.13457,,,,,,,,,,,,,,,,,,,,,,,,,,,,9,54,106.5,1,0,0,response1disk,6,233,-19,-13.5,1,0,0,rectangle,-19,-13.5,1,0,0,4,3,0,0.00052,-19,-13.5,1,0,0,0,70,70,148,1,,,,,,,,,,,,,,,,,,,,,
,,,,,,,,,,,,,,,,,,,,,,,,,,,,,,,,,,,,,,,,,,,5f1a3c1d94d028134ad46340,5ff3a3e383f6af98fc097e41,2021-01-05_01h25.37.880,Colour_Similarity_Experiment_v1,2020.1.2,Win32,60,5ff3a352adaa099f7659f8cc,,,,,,,,,,,,,,,,,,,,PF,,,,,,,,7,0.79979,,,,,,,,,,,,,,,,,,,,,,,,,,,,3,45,92.5,1,0,0,response1disk,7,234,-5,14.5,1,0,0,rectangle,-5,14.5,1,0,0,4,1,0,0.00064,-5,14.5,1,0,0,0,71,71,41,1,,,,,,,,,,,,,,,,,,,,,
,,,,,,,,,,,,,,,,,,,,,,,,,,,,,,,,,,,,,,,,,,,5f1a3c1d94d028134ad46340,5ff3a3e383f6af98fc097e41,2021-01-05_01h25.37.880,Colour_Similarity_Experiment_v1,2020.1.2,Win32,60,5ff3a352adaa099f7659f8cc,,,,,,,,,,,,,,,,,,,,FF,,,,,,,,7,0.681885,,,,,,,,,,,,,,,,,,,,,,,,,,,,1,57,72.5,1,0,0,response1disk,5,235,2,2.5,1,0,0,rectangle,2,2.5,1,0,0,4,0,0,0.00058,2,2.5,1,0,0,0,72,72,82,1,,,,,,,,,,,,,,,,,,,,,
