key_resp.keys,key_resp.rt,key_resp_16.keys,key_resp_16.rt,key_resp_2.keys,key_resp_2.rt,X Scale,ratio_pxpermm,screen_size_x,screen_size_y,testsize,key_resp_3.keys,key_resp_3.rt,key_resp_4.keys,key_resp_4.rt,line_size,key_resp_5.keys,key_resp_5.rt,key_resp_6.keys,key_resp_6.rt,key_resp_8.keys,key_resp_8.rt,key_resp_7.keys,key_resp_7.rt,key_resp_12.keys,key_resp_12.rt,key_resp_11.keys,key_resp_11.rt,key_resp_18.keys,key_resp_18.rt,key_resp_21.keys,key_resp_21.rt,key_resp_13.keys,key_resp_13.rt,key_resp_19.keys,key_resp_19.rt,ballposx,viewer_distance,trials.thisRepN,trials.thisTrialN,trials.thisN,trials.thisIndex,trials.ran,participant,session,date,expName,psychopyVersion,OS,frameRate,study_id,viewerdistancecm,DVA_to_distance,radius_F,radius_P,r_F,R_P,key_resp_20.keys,key_resp_20.rt,key_resp_14.keys,key_resp_14.rt,key_resp_15.keys,key_resp_15.rt,key_resp_17.keys,key_resp_17.rt,key_resp_9.keys,key_resp_9.rt,key_resp_10.keys,key_resp_10.rt,Colour_1,Ecc,mouse_5.x,mouse_5.y,mouse_5.leftButton,mouse_5.midButton,mouse_5.rightButton,mouse_5.clicked_name,Colour_2,similarity,response_time,mouse_10.x,mouse_10.y,mouse_10.leftButton,mouse_10.midButton,mouse_10.rightButton,mouse_10.clicked_name,mouse_7.x,mouse_7.y,mouse_7.leftButton,mouse_7.midButton,mouse_7.rightButton,mouse_7.clicked_name,catchprac,catchnumberprac,mouse_6.x,mouse_6.y,mouse_6.leftButton,mouse_6.midButton,mouse_6.rightButton,mouse_6.clicked_name,duringprac.thisRepN,duringprac.thisTrialN,duringprac.thisN,duringprac.thisIndex,duringprac.ran,key_resp_22.keys,key_resp_22.rt,Colour1,mouse.x,mouse.y,mouse.leftButton,mouse.midButton,mouse.rightButton,mouse.clicked_name,Colour2,trialnumber,mouse_2.x,mouse_2.y,mouse_2.leftButton,mouse_2.midButton,mouse_2.rightButton,mouse_2.clicked_name,mouse_3.x,mouse_3.y,mouse_3.leftButton,mouse_3.midButton,mouse_3.rightButton,catchresponse,catchnumber,Catch,response_time_catch,mouse_11.x,mouse_11.y,mouse_11.leftButton,mouse_11.midButton,mouse_11.rightButton,trials_2.thisRepN,trials_2.thisTrialN,trials_2.thisN,trials_2.thisIndex,trials_2.ran,mouse_3.clicked_name,mouse_11.clicked_name,trials_3.thisRepN,trials_3.thisTrialN,trials_3.thisN,trials_3.thisIndex,trials_3.ran,answer1,rt1,answer2,rt2,answer3,rt3,answer4,rt4,answer5,rt5,answer6,rt6,answer7,rt7
space,5.6334,space,4.77865,space,2.19676,30.5,3.05,503.6065574,283.2786885,1536,space,21.681335,space,11.783995,61,space,7.660275,space,5.10553,space,1.865635,space,2.113755,space,6.12043,space,7.85315,space,4.56901,space,6.72795,space,10.9547,return,2.99794,156.672,625.1065707,0,0,0,0,1,5f5146d7f21c6b36727ba867,5ff3a76ae766bba1e590e946,2021-01-04_15h40.42.400,Colour_Similarity_Experiment_v1,2020.1.2,Win32,60,5ff3a352adaa099f7659f8cc,,,,,,,,,,,,,,,,,,,,,,,,,,,,,,,,,,,,,,,,,,,,,,,,,,,,,,,,,,,,,,,,,,,,,,,,,,,,,,,,,,,,,,,,,,,,,,,,,,,,,,,,,,,,,,,
,,,,,,,,,,,,,,,,,,,,,,,,,,,,,,,,,,return,2.975195,163.584,615.667042,1,0,1,0,1,5f5146d7f21c6b36727ba867,5ff3a76ae766bba1e590e946,2021-01-04_15h40.42.400,Colour_Similarity_Experiment_v1,2020.1.2,Win32,60,5ff3a352adaa099f7659f8cc,,,,,,,,,,,,,,,,,,,,,,,,,,,,,,,,,,,,,,,,,,,,,,,,,,,,,,,,,,,,,,,,,,,,,,,,,,,,,,,,,,,,,,,,,,,,,,,,,,,,,,,,,,,,,,,
,,,,,,,,,,,,,,,,,,,,,,,,,,,,,,,,,,return,2.866015,177.408,596.7879845,2,0,2,0,1,5f5146d7f21c6b36727ba867,5ff3a76ae766bba1e590e946,2021-01-04_15h40.42.400,Colour_Similarity_Experiment_v1,2020.1.2,Win32,60,5ff3a352adaa099f7659f8cc,,,,,,,,,,,,,,,,,,,,,,,,,,,,,,,,,,,,,,,,,,,,,,,,,,,,,,,,,,,,,,,,,,,,,,,,,,,,,,,,,,,,,,,,,,,,,,,,,,,,,,,,,,,,,,,
,,,,,,,,,,,,,,,,,,,,,,,,,,,,,,,,,,return,2.96472,163.584,615.667042,3,0,3,0,1,5f5146d7f21c6b36727ba867,5ff3a76ae766bba1e590e946,2021-01-04_15h40.42.400,Colour_Similarity_Experiment_v1,2020.1.2,Win32,60,5ff3a352adaa099f7659f8cc,,,,,,,,,,,,,,,,,,,,,,,,,,,,,,,,,,,,,,,,,,,,,,,,,,,,,,,,,,,,,,,,,,,,,,,,,,,,,,,,,,,,,,,,,,,,,,,,,,,,,,,,,,,,,,,
,,,,,,,,,,,,,,,,,,,,,,,,,,,,,,,,,,return,2.878025,177.408,596.7879845,4,0,4,0,1,5f5146d7f21c6b36727ba867,5ff3a76ae766bba1e590e946,2021-01-04_15h40.42.400,Colour_Similarity_Experiment_v1,2020.1.2,Win32,60,5ff3a352adaa099f7659f8cc,,,,,,,,,,,,,,,,,,,,,,,,,,,,,,,,,,,,,,,,,,,,,,,,,,,,,,,,,,,,,,,,,,,,,,,,,,,,,,,,,,,,,,,,,,,,,,,,,,,,,,,,,,,,,,,
,,,,,,,,,,,,,,,,,,,,,,,,,,,,,,,,,,,,,,,,,,,5f5146d7f21c6b36727ba867,5ff3a76ae766bba1e590e946,2021-01-04_15h40.42.400,Colour_Similarity_Experiment_v1,2020.1.2,Win32,60,5ff3a352adaa099f7659f8cc,62,10.82213639,49.51127396,330.0751597,33.00751597,148.5338219,space,2.90121,space,3.969775,space,32.532,space,4.484485,space,2.008515,space,2.904625,1,FF,48.00001216,83.99999481,1,0,0,response1disk_5,4,7,3.17003,1.14441E-05,-5.600006521,1,0,0,rectangle_8,54.40001225,-116.8000082,1,0,0,response3disk_7,4,4,-3.999988616,-6.4373E-06,1,0,0,rectangle_4,0,0,0,5,1,,,,,,,,,,,,,,,,,,,,,,,,,,,,,,,,,,,,,,,,,,,,,,,,,,,,,,,,,
,,,,,,,,,,,,,,,,,,,,,,,,,,,,,,,,,,,,,,,,,,,5f5146d7f21c6b36727ba867,5ff3a76ae766bba1e590e946,2021-01-04_15h40.42.400,Colour_Similarity_Experiment_v1,2020.1.2,Win32,60,5ff3a352adaa099f7659f8cc,,,,,,,,,,,,,,,,,,,5,FF,43.20001209,-95.20000786,1,0,0,response3disk_5,4,4,8.273865,-10.39993988,4.799993634,1,0,0,rectangle_8,-10.39993988,4.799993634,1,0,0,,,4,-10.39993988,4.799993634,1,0,0,,0,1,1,0,1,,,,,,,,,,,,,,,,,,,,,,,,,,,,,,,,,,,,,,,,,,,,,,,,,,,,,,,,,
,,,,,,,,,,,,,,,,,,,,,,,,,,,,,,,,,,,,,,,,,,,5f5146d7f21c6b36727ba867,5ff3a76ae766bba1e590e946,2021-01-04_15h40.42.400,Colour_Similarity_Experiment_v1,2020.1.2,Win32,60,5ff3a352adaa099f7659f8cc,,,,,,,,,,,,,,,,,,,8,PF,52.80001223,99.19997063,1,0,0,response1disk_5,3,7,2.709755,8.000011563,5.599993646,1,0,0,rectangle_8,8.000011563,5.599993646,1,0,0,,,4,8.000011563,5.599993646,1,0,0,,0,2,2,6,1,,,,,,,,,,,,,,,,,,,,,,,,,,,,,,,,,,,,,,,,,,,,,,,,,,,,,,,,,
,,,,,,,,,,,,,,,,,,,,,,,,,,,,,,,,,,,,,,,,,,,5f5146d7f21c6b36727ba867,5ff3a76ae766bba1e590e946,2021-01-04_15h40.42.400,Colour_Similarity_Experiment_v1,2020.1.2,Win32,60,5ff3a352adaa099f7659f8cc,,,,,,,,,,,,,,,,,,,8,PF,37.60006083,89.5999949,1,0,0,response1disk_5,2,7,4.791005,-13.59998876,-6.4373E-06,1,0,0,rectangle_8,-13.59998876,-6.4373E-06,1,0,0,,,4,-13.59998876,-6.4373E-06,1,0,0,,0,3,3,2,1,,,,,,,,,,,,,,,,,,,,,,,,,,,,,,,,,,,,,,,,,,,,,,,,,,,,,,,,,
,,,,,,,,,,,,,,,,,,,,,,,,,,,,,,,,,,,,,,,,,,,5f5146d7f21c6b36727ba867,5ff3a76ae766bba1e590e946,2021-01-04_15h40.42.400,Colour_Similarity_Experiment_v1,2020.1.2,Win32,60,5ff3a352adaa099f7659f8cc,,,,,,,,,,,,,,,,,,,3,PF,46.40001214,103.9999951,1,0,0,response1disk_5,7,7,4.56125,1.600060296,-5.600006521,1,0,0,rectangle_8,47.20001215,-111.2000081,1,0,0,response3disk_7,4,4,-11.19998872,4.799993634,1,0,0,rectangle_4,0,4,4,1,1,,,,,,,,,,,,,,,,,,,,,,,,,,,,,,,,,,,,,,,,,,,,,,,,,,,,,,,,,
,,,,,,,,,,,,,,,,,,,,,,,,,,,,,,,,,,,,,,,,,,,5f5146d7f21c6b36727ba867,5ff3a76ae766bba1e590e946,2021-01-04_15h40.42.400,Colour_Similarity_Experiment_v1,2020.1.2,Win32,60,5ff3a352adaa099f7659f8cc,,,,,,,,,,,,,,,,,,,7,PF,36.80001199,76.79999471,1,0,0,response1disk_5,2,7,2.174,6.400011539,2.399993598,1,0,0,rectangle_8,6.400011539,2.399993598,1,0,0,,,4,6.400011539,2.399993598,1,0,0,,0,5,5,4,1,,,,,,,,,,,,,,,,,,,,,,,,,,,,,,,,,,,,,,,,,,,,,,,,,,,,,,,,,
,,,,,,,,,,,,,,,,,,,,,,,,,,,,,,,,,,,,,,,,,,,5f5146d7f21c6b36727ba867,5ff3a76ae766bba1e590e946,2021-01-04_15h40.42.400,Colour_Similarity_Experiment_v1,2020.1.2,Win32,60,5ff3a352adaa099f7659f8cc,,,,,,,,,,,,,,,,,,,6,FF,40.80001205,90.39999491,1,0,0,response1disk_5,2,7,3.31289,3.200011492,-4.000006497,1,0,0,rectangle_8,3.200011492,-4.000006497,1,0,0,,,4,3.200011492,-4.000006497,1,0,0,,0,6,6,3,1,,,,,,,,,,,,,,,,,,,,,,,,,,,,,,,,,,,,,,,,,,,,,,,,,,,,,,,,,
,,,,,,,,,,,,,,,,,,,,,,,,,,,,,,,,,,,,,,,,,,,5f5146d7f21c6b36727ba867,5ff3a76ae766bba1e590e946,2021-01-04_15h40.42.400,Colour_Similarity_Experiment_v1,2020.1.2,Win32,60,5ff3a352adaa099f7659f8cc,,,,,,,,,,,,,,,,,,,,FF,,,,,,,,7,1.80954,,,,,,,,,,,,,,,,,,,,,,,,,,space,2.077645,3,28.80001187,90.39999491,1,0,0,response1disk,8,1,-1.59998858,-0.800006449,1,0,0,rectangle,-1.59998858,-0.800006449,1,0,0,,6,0,0.000845,-1.59998858,-0.800006449,1,0,0,0,0,0,44,1,,,,,,,,,,,,,,,,,,,,,
,,,,,,,,,,,,,,,,,,,,,,,,,,,,,,,,,,,,,,,,,,,5f5146d7f21c6b36727ba867,5ff3a76ae766bba1e590e946,2021-01-04_15h40.42.400,Colour_Similarity_Experiment_v1,2020.1.2,Win32,60,5ff3a352adaa099f7659f8cc,,,,,,,,,,,,,,,,,,,,FF,,,,,,,,7,3.017725,,,,,,,,,,,,,,,,,,,,,,,,,,,,2,28.00001186,87.19997045,1,0,0,response1disk,6,2,-14.39993994,7.999993682,1,0,0,rectangle,-14.39993994,7.999993682,1,0,0,,2,0,0.00056,-14.39993994,7.999993682,1,0,0,0,1,1,40,1,,,,,,,,,,,,,,,,,,,,,
,,,,,,,,,,,,,,,,,,,,,,,,,,,,,,,,,,,,,,,,,,,5f5146d7f21c6b36727ba867,5ff3a76ae766bba1e590e946,2021-01-04_15h40.42.400,Colour_Similarity_Experiment_v1,2020.1.2,Win32,60,5ff3a352adaa099f7659f8cc,,,,,,,,,,,,,,,,,,,,FF,,,,,,,,2,3.675515,,,,,,,,,,,,,,,,,,,,,,,,,,,,7,-82.39994096,-44.00000709,1,0,0,response5disk,6,3,-14.39993994,0.799993575,1,0,0,rectangle,-14.39993994,0.799993575,1,0,0,,0,0,0.000475,-14.39993994,0.799993575,1,0,0,0,2,2,31,1,,,,,,,,,,,,,,,,,,,,,
,,,,,,,,,,,,,,,,,,,,,,,,,,,,,,,,,,,,,,,,,,,5f5146d7f21c6b36727ba867,5ff3a76ae766bba1e590e946,2021-01-04_15h40.42.400,Colour_Similarity_Experiment_v1,2020.1.2,Win32,60,5ff3a352adaa099f7659f8cc,,,,,,,,,,,,,,,,,,,,FF,,,,,,,,7,1.872325,,,,,,,,,,,,,,,,,,,,,,,,,,,,6,40.00001204,79.19997033,1,0,0,response1disk,3,4,-3.199988604,3.999993622,1,0,0,rectangle,-3.199988604,3.999993622,1,0,0,,6,0,0.000535,-3.199988604,3.999993622,1,0,0,0,3,3,21,1,,,,,,,,,,,,,,,,,,,,,
,,,,,,,,,,,,,,,,,,,,,,,,,,,,,,,,,,,,,,,,,,,5f5146d7f21c6b36727ba867,5ff3a76ae766bba1e590e946,2021-01-04_15h40.42.400,Colour_Similarity_Experiment_v1,2020.1.2,Win32,60,5ff3a352adaa099f7659f8cc,,,,,,,,,,,,,,,,,,,,FF,,,,,,,,7,2.620715,,,,,,,,,,,,,,,,,,,,,,,,,,,,5,39.20001203,67.99999458,1,0,0,response1disk,2,5,5.600060356,3.999993622,1,0,0,rectangle,100.0000129,32.79999405,1,0,0,6,6,1,2.386565,20.00001174,-7.200006545,1,0,0,0,4,4,55,1,response1disk_3,rectangle,,,,,,,,,,,,,,,,,,,
,,,,,,,,,,,,,,,,,,,,,,,,,,,,,,,,,,,,,,,,,,,5f5146d7f21c6b36727ba867,5ff3a76ae766bba1e590e946,2021-01-04_15h40.42.400,Colour_Similarity_Experiment_v1,2020.1.2,Win32,60,5ff3a352adaa099f7659f8cc,,,,,,,,,,,,,,,,,,,,FF,,,,,,,,7,1.440545,,,,,,,,,,,,,,,,,,,,,,,,,,,,2,31.20001191,83.19997039,1,0,0,response1disk,7,6,3.200011492,1.599993587,1,0,0,rectangle,3.200011492,1.599993587,1,0,0,6,4,0,0.000465,3.200011492,1.599993587,1,0,0,0,5,5,63,1,,,,,,,,,,,,,,,,,,,,,
,,,,,,,,,,,,,,,,,,,,,,,,,,,,,,,,,,,,,,,,,,,5f5146d7f21c6b36727ba867,5ff3a76ae766bba1e590e946,2021-01-04_15h40.42.400,Colour_Similarity_Experiment_v1,2020.1.2,Win32,60,5ff3a352adaa099f7659f8cc,,,,,,,,,,,,,,,,,,,,FF,,,,,,,,7,3.12745,,,,,,,,,,,,,,,,,,,,,,,,,,,,3,52.00001222,75.19997027,1,0,0,response1disk,6,7,29.60006071,-6.4373E-06,1,0,0,rectangle,29.60006071,-6.4373E-06,1,0,0,6,1,0,0.00046,29.60006071,-6.4373E-06,1,0,0,0,6,6,95,1,,,,,,,,,,,,,,,,,,,,,
,,,,,,,,,,,,,,,,,,,,,,,,,,,,,,,,,,,,,,,,,,,5f5146d7f21c6b36727ba867,5ff3a76ae766bba1e590e946,2021-01-04_15h40.42.400,Colour_Similarity_Experiment_v1,2020.1.2,Win32,60,5ff3a352adaa099f7659f8cc,,,,,,,,,,,,,,,,,,,,PF,,,,,,,,7,1.479015,,,,,,,,,,,,,,,,,,,,,,,,,,,,2,40.00001204,111.1999708,1,0,0,response1disk,8,8,9.600060415,1.599993587,1,0,0,rectangle,9.600060415,1.599993587,1,0,0,6,1,0,0.000475,9.600060415,1.599993587,1,0,0,0,7,7,52,1,,,,,,,,,,,,,,,,,,,,,
,,,,,,,,,,,,,,,,,,,,,,,,,,,,,,,,,,,,,,,,,,,5f5146d7f21c6b36727ba867,5ff3a76ae766bba1e590e946,2021-01-04_15h40.42.400,Colour_Similarity_Experiment_v1,2020.1.2,Win32,60,5ff3a352adaa099f7659f8cc,,,,,,,,,,,,,,,,,,,,FF,,,,,,,,7,1.466315,,,,,,,,,,,,,,,,,,,,,,,,,,,,1,39.20001203,76.79999471,1,0,0,response1disk,6,9,12.00001162,2.399993598,1,0,0,rectangle,12.00001162,2.399993598,1,0,0,6,5,0,0.000495,12.00001162,2.399993598,1,0,0,0,8,8,58,1,,,,,,,,,,,,,,,,,,,,,
,,,,,,,,,,,,,,,,,,,,,,,,,,,,,,,,,,,,,,,,,,,5f5146d7f21c6b36727ba867,5ff3a76ae766bba1e590e946,2021-01-04_15h40.42.400,Colour_Similarity_Experiment_v1,2020.1.2,Win32,60,5ff3a352adaa099f7659f8cc,,,,,,,,,,,,,,,,,,,,FF,,,,,,,,5,3.36991,,,,,,,,,,,,,,,,,,,,,,,,,,,,5,80.80001265,-53.60000724,1,0,0,response3disk,6,10,-7.999988675,0.799993575,1,0,0,rectangle,-7.999988675,0.799993575,1,0,0,6,5,0,0.000515,-7.999988675,0.799993575,1,0,0,0,9,9,12,1,,,,,,,,,,,,,,,,,,,,,
,,,,,,,,,,,,,,,,,,,,,,,,,,,,,,,,,,,,,,,,,,,5f5146d7f21c6b36727ba867,5ff3a76ae766bba1e590e946,2021-01-04_15h40.42.400,Colour_Similarity_Experiment_v1,2020.1.2,Win32,60,5ff3a352adaa099f7659f8cc,,,,,,,,,,,,,,,,,,,,FF,,,,,,,,7,1.188455,,,,,,,,,,,,,,,,,,,,,,,,,,,,4,31.20001191,64.79999453,1,0,0,response1disk,2,11,12.80001163,7.999993682,1,0,0,rectangle,12.80001163,7.999993682,1,0,0,6,0,0,0.000465,12.80001163,7.999993682,1,0,0,0,10,10,13,1,,,,,,,,,,,,,,,,,,,,,
,,,,,,,,,,,,,,,,,,,,,,,,,,,,,,,,,,,,,,,,,,,5f5146d7f21c6b36727ba867,5ff3a76ae766bba1e590e946,2021-01-04_15h40.42.400,Colour_Similarity_Experiment_v1,2020.1.2,Win32,60,5ff3a352adaa099f7659f8cc,,,,,,,,,,,,,,,,,,,,FF,,,,,,,,7,3.562925,,,,,,,,,,,,,,,,,,,,,,,,,,,,2,37.60006083,95.99999499,1,0,0,response1disk,9,12,-8.799988687,5.599993646,1,0,0,rectangle,-8.799988687,5.599993646,1,0,0,6,2,0,0.000465,-8.799988687,5.599993646,1,0,0,0,11,11,72,1,,,,,,,,,,,,,,,,,,,,,
,,,,,,,,,,,,,,,,,,,,,,,,,,,,,,,,,,,,,,,,,,,5f5146d7f21c6b36727ba867,5ff3a76ae766bba1e590e946,2021-01-04_15h40.42.400,Colour_Similarity_Experiment_v1,2020.1.2,Win32,60,5ff3a352adaa099f7659f8cc,,,,,,,,,,,,,,,,,,,,PF,,,,,,,,7,1.48389,,,,,,,,,,,,,,,,,,,,,,,,,,,,2,46.40001214,96.79999501,1,0,0,response1disk,9,13,1.14441E-05,-4.800006509,1,0,0,rectangle,1.14441E-05,-4.800006509,1,0,0,6,2,0,0.0005,1.14441E-05,-4.800006509,1,0,0,0,12,12,39,1,,,,,,,,,,,,,,,,,,,,,
,,,,,,,,,,,,,,,,,,,,,,,,,,,,,,,,,,,,,,,,,,,5f5146d7f21c6b36727ba867,5ff3a76ae766bba1e590e946,2021-01-04_15h40.42.400,Colour_Similarity_Experiment_v1,2020.1.2,Win32,60,5ff3a352adaa099f7659f8cc,,,,,,,,,,,,,,,,,,,,FF,,,,,,,,5,2.380915,,,,,,,,,,,,,,,,,,,,,,,,,,,,1,88.80001277,-54.40000725,1,0,0,response3disk,2,14,8.800011575,-1.600006461,1,0,0,rectangle,8.800011575,-1.600006461,1,0,0,6,5,0,0.000475,8.800011575,-1.600006461,1,0,0,0,13,13,2,1,,,,,,,,,,,,,,,,,,,,,
,,,,,,,,,,,,,,,,,,,,,,,,,,,,,,,,,,,,,,,,,,,5f5146d7f21c6b36727ba867,5ff3a76ae766bba1e590e946,2021-01-04_15h40.42.400,Colour_Similarity_Experiment_v1,2020.1.2,Win32,60,5ff3a352adaa099f7659f8cc,,,,,,,,,,,,,,,,,,,,PF,,,,,,,,3,3.927915,,,,,,,,,,,,,,,,,,,,,,,,,,,,5,-51.99998933,-72.00000751,1,0,0,response5disk,3,15,-11.99998873,-3.200006485,1,0,0,rectangle,-11.99998873,-3.200006485,1,0,0,6,2,0,0.000475,-11.99998873,-3.200006485,1,0,0,0,14,14,109,1,,,,,,,,,,,,,,,,,,,,,
,,,,,,,,,,,,,,,,,,,,,,,,,,,,,,,,,,,,,,,,,,,5f5146d7f21c6b36727ba867,5ff3a76ae766bba1e590e946,2021-01-04_15h40.42.400,Colour_Similarity_Experiment_v1,2020.1.2,Win32,60,5ff3a352adaa099f7659f8cc,,,,,,,,,,,,,,,,,,,,FF,,,,,,,,7,2.557875,,,,,,,,,,,,,,,,,,,,,,,,,,,,8,34.40001196,73.59999466,1,0,0,response1disk,1,16,16.80001169,11.19999373,1,0,0,rectangle,16.80001169,11.19999373,1,0,0,6,2,0,0.00045,16.80001169,11.19999373,1,0,0,0,15,15,20,1,,,,,,,,,,,,,,,,,,,,,
,,,,,,,,,,,,,,,,,,,,,,,,,,,,,,,,,,,,,,,,,,,5f5146d7f21c6b36727ba867,5ff3a76ae766bba1e590e946,2021-01-04_15h40.42.400,Colour_Similarity_Experiment_v1,2020.1.2,Win32,60,5ff3a352adaa099f7659f8cc,,,,,,,,,,,,,,,,,,,,FF,,,,,,,,0,1.9874,,,,,,,,,,,,,,,,,,,,,,,,,,,,3,-45.59998924,82.39999479,1,0,0,response7disk,3,17,-11.99998873,-8.000006557,1,0,0,rectangle,-11.99998873,-8.000006557,1,0,0,6,4,0,0.000465,-11.99998873,-8.000006557,1,0,0,0,16,16,68,1,,,,,,,,,,,,,,,,,,,,,
,,,,,,,,,,,,,,,,,,,,,,,,,,,,,,,,,,,,,,,,,,,5f5146d7f21c6b36727ba867,5ff3a76ae766bba1e590e946,2021-01-04_15h40.42.400,Colour_Similarity_Experiment_v1,2020.1.2,Win32,60,5ff3a352adaa099f7659f8cc,,,,,,,,,,,,,,,,,,,,PF,,,,,,,,7,1.28671,,,,,,,,,,,,,,,,,,,,,,,,,,,,1,48.80001217,81.59999478,1,0,0,response1disk,5,18,16.00001168,0.799993575,1,0,0,rectangle,16.00001168,0.799993575,1,0,0,6,7,0,0.00047,16.00001168,0.799993575,1,0,0,0,17,17,28,1,,,,,,,,,,,,,,,,,,,,,
,,,,,,,,,,,,,,,,,,,,,,,,,,,,,,,,,,,,,,,,,,,5f5146d7f21c6b36727ba867,5ff3a76ae766bba1e590e946,2021-01-04_15h40.42.400,Colour_Similarity_Experiment_v1,2020.1.2,Win32,60,5ff3a352adaa099f7659f8cc,,,,,,,,,,,,,,,,,,,,FF,,,,,,,,7,3.530395,,,,,,,,,,,,,,,,,,,,,,,,,,,,2,51.20001221,78.39999473,1,0,0,response1disk,4,19,22.40001178,-4.800006509,1,0,0,rectangle,22.40001178,-4.800006509,1,0,0,6,1,0,0.00049,22.40001178,-4.800006509,1,0,0,0,18,18,145,1,,,,,,,,,,,,,,,,,,,,,
,,,,,,,,,,,,,,,,,,,,,,,,,,,,,,,,,,,,,,,,,,,5f5146d7f21c6b36727ba867,5ff3a76ae766bba1e590e946,2021-01-04_15h40.42.400,Colour_Similarity_Experiment_v1,2020.1.2,Win32,60,5ff3a352adaa099f7659f8cc,,,,,,,,,,,,,,,,,,,,FF,,,,,,,,0,1.135285,,,,,,,,,,,,,,,,,,,,,,,,,,,,6,-49.5999893,88.79999489,1,0,0,response7disk,6,20,-3.199988604,-4.800006509,1,0,0,rectangle,-3.199988604,-4.800006509,1,0,0,6,0,0,0.000455,-3.199988604,-4.800006509,1,0,0,0,19,19,91,1,,,,,,,,,,,,,,,,,,,,,
,,,,,,,,,,,,,,,,,,,,,,,,,,,,,,,,,,,,,,,,,,,5f5146d7f21c6b36727ba867,5ff3a76ae766bba1e590e946,2021-01-04_15h40.42.400,Colour_Similarity_Experiment_v1,2020.1.2,Win32,60,5ff3a352adaa099f7659f8cc,,,,,,,,,,,,,,,,,,,,PF,,,,,,,,7,1.2307,,,,,,,,,,,,,,,,,,,,,,,,,,,,6,63.20001239,102.3999951,1,0,0,response1disk,4,21,12.80001163,2.399993598,1,0,0,rectangle,12.80001163,2.399993598,1,0,0,6,6,0,0.00046,12.80001163,2.399993598,1,0,0,0,20,20,33,1,,,,,,,,,,,,,,,,,,,,,
,,,,,,,,,,,,,,,,,,,,,,,,,,,,,,,,,,,,,,,,,,,5f5146d7f21c6b36727ba867,5ff3a76ae766bba1e590e946,2021-01-04_15h40.42.400,Colour_Similarity_Experiment_v1,2020.1.2,Win32,60,5ff3a352adaa099f7659f8cc,,,,,,,,,,,,,,,,,,,,FF,,,,,,,,3,3.444175,,,,,,,,,,,,,,,,,,,,,,,,,,,,6,-43.1999892,-98.4000079,1,0,0,response5disk,7,22,-5.599988639,-6.400006533,1,0,0,rectangle,-5.599988639,-6.400006533,1,0,0,6,1,0,0.00049,-5.599988639,-6.400006533,1,0,0,0,21,21,18,1,,,,,,,,,,,,,,,,,,,,,
,,,,,,,,,,,,,,,,,,,,,,,,,,,,,,,,,,,,,,,,,,,5f5146d7f21c6b36727ba867,5ff3a76ae766bba1e590e946,2021-01-04_15h40.42.400,Colour_Similarity_Experiment_v1,2020.1.2,Win32,60,5ff3a352adaa099f7659f8cc,,,,,,,,,,,,,,,,,,,,FF,,,,,,,,0,1.045545,,,,,,,,,,,,,,,,,,,,,,,,,,,,1,-36.7999891,95.99999499,1,0,0,response7disk,1,23,-15.99998879,-9.60000658,1,0,0,rectangle,-15.99998879,-9.60000658,1,0,0,6,5,0,0.00094,-15.99998879,-9.60000658,1,0,0,0,22,22,151,1,,,,,,,,,,,,,,,,,,,,,
,,,,,,,,,,,,,,,,,,,,,,,,,,,,,,,,,,,,,,,,,,,5f5146d7f21c6b36727ba867,5ff3a76ae766bba1e590e946,2021-01-04_15h40.42.400,Colour_Similarity_Experiment_v1,2020.1.2,Win32,60,5ff3a352adaa099f7659f8cc,,,,,,,,,,,,,,,,,,,,FF,,,,,,,,7,1.22924,,,,,,,,,,,,,,,,,,,,,,,,,,,,4,50.4000122,78.39999473,1,0,0,response1disk,1,24,7.200011551,-0.800006449,1,0,0,rectangle,7.200011551,-0.800006449,1,0,0,6,2,0,0.00048,7.200011551,-0.800006449,1,0,0,0,23,23,102,1,,,,,,,,,,,,,,,,,,,,,
,,,,,,,,,,,,,,,,,,,,,,,,,,,,,,,,,,,,,,,,,,,5f5146d7f21c6b36727ba867,5ff3a76ae766bba1e590e946,2021-01-04_15h40.42.400,Colour_Similarity_Experiment_v1,2020.1.2,Win32,60,5ff3a352adaa099f7659f8cc,,,,,,,,,,,,,,,,,,,,FF,,,,,,,,0,3.988245,,,,,,,,,,,,,,,,,,,,,,,,,,,,2,-53.59998935,87.99999487,1,0,0,response7disk,2,25,-12.79998875,7.19999367,1,0,0,rectangle,-12.79998875,7.19999367,1,0,0,6,6,0,0.000505,-12.79998875,7.19999367,1,0,0,0,24,24,142,1,,,,,,,,,,,,,,,,,,,,,
,,,,,,,,,,,,,,,,,,,,,,,,,,,,,,,,,,,,,,,,,,,5f5146d7f21c6b36727ba867,5ff3a76ae766bba1e590e946,2021-01-04_15h40.42.400,Colour_Similarity_Experiment_v1,2020.1.2,Win32,60,5ff3a352adaa099f7659f8cc,,,,,,,,,,,,,,,,,,,,PF,,,,,,,,3,1.86102,,,,,,,,,,,,,,,,,,,,,,,,,,,,6,-37.59998912,-90.40000778,1,0,0,response5disk,7,26,-6.399939823,4.799993634,1,0,0,rectangle,-6.399939823,4.799993634,1,0,0,6,4,0,0.000485,-6.399939823,4.799993634,1,0,0,0,25,25,50,1,,,,,,,,,,,,,,,,,,,,,
,,,,,,,,,,,,,,,,,,,,,,,,,,,,,,,,,,,,,,,,,,,5f5146d7f21c6b36727ba867,5ff3a76ae766bba1e590e946,2021-01-04_15h40.42.400,Colour_Similarity_Experiment_v1,2020.1.2,Win32,60,5ff3a352adaa099f7659f8cc,,,,,,,,,,,,,,,,,,,,PF,,,,,,,,5,1.90218,,,,,,,,,,,,,,,,,,,,,,,,,,,,1,84.80001271,-56.80000728,1,0,0,response3disk,2,27,-5.599988639,8.799993694,1,0,0,rectangle,-5.599988639,8.799993694,1,0,0,6,3,0,0.000455,-5.599988639,8.799993694,1,0,0,0,26,26,24,1,,,,,,,,,,,,,,,,,,,,,
,,,,,,,,,,,,,,,,,,,,,,,,,,,,,,,,,,,,,,,,,,,5f5146d7f21c6b36727ba867,5ff3a76ae766bba1e590e946,2021-01-04_15h40.42.400,Colour_Similarity_Experiment_v1,2020.1.2,Win32,60,5ff3a352adaa099f7659f8cc,,,,,,,,,,,,,,,,,,,,PF,,,,,,,,7,2.79225,,,,,,,,,,,,,,,,,,,,,,,,,,,,8,51.20001221,64.79999453,1,0,0,response1disk,7,28,3.200011492,7.999993682,1,0,0,rectangle,3.200011492,7.999993682,1,0,0,6,2,0,0.00048,3.200011492,7.999993682,1,0,0,0,27,27,23,1,,,,,,,,,,,,,,,,,,,,,
,,,,,,,,,,,,,,,,,,,,,,,,,,,,,,,,,,,,,,,,,,,5f5146d7f21c6b36727ba867,5ff3a76ae766bba1e590e946,2021-01-04_15h40.42.400,Colour_Similarity_Experiment_v1,2020.1.2,Win32,60,5ff3a352adaa099f7659f8cc,,,,,,,,,,,,,,,,,,,,FF,,,,,,,,6,4.576255,,,,,,,,,,,,,,,,,,,,,,,,,,,,1,76.00001258,28.79999399,1,0,0,response1disk,9,29,1.600060296,-2.400006473,1,0,0,rectangle,1.600060296,-2.400006473,1,0,0,6,7,0,0.001335,1.600060296,-2.400006473,1,0,0,0,28,28,123,1,,,,,,,,,,,,,,,,,,,,,
,,,,,,,,,,,,,,,,,,,,,,,,,,,,,,,,,,,,,,,,,,,5f5146d7f21c6b36727ba867,5ff3a76ae766bba1e590e946,2021-01-04_15h40.42.400,Colour_Similarity_Experiment_v1,2020.1.2,Win32,60,5ff3a352adaa099f7659f8cc,,,,,,,,,,,,,,,,,,,,FF,,,,,,,,6,1.346155,,,,,,,,,,,,,,,,,,,,,,,,,,,,9,86.40001273,38.39999413,1,0,0,response1disk,1,30,-0.799988568,3.19999361,1,0,0,rectangle,-0.799988568,3.19999361,1,0,0,6,1,0,0.000445,-0.799988568,3.19999361,1,0,0,0,29,29,111,1,,,,,,,,,,,,,,,,,,,,,
,,,,,,,,,,,,,,,,,,,,,,,,,,,,,,,,,,,,,,,,,,,5f5146d7f21c6b36727ba867,5ff3a76ae766bba1e590e946,2021-01-04_15h40.42.400,Colour_Similarity_Experiment_v1,2020.1.2,Win32,60,5ff3a352adaa099f7659f8cc,,,,,,,,,,,,,,,,,,,,PF,,,,,,,,7,1.671925,,,,,,,,,,,,,,,,,,,,,,,,,,,,6,48.00001216,92.79999495,1,0,0,response1disk,8,31,13.60006047,0.799993575,1,0,0,rectangle,13.60006047,0.799993575,1,0,0,6,4,0,0.000445,13.60006047,0.799993575,1,0,0,0,30,30,64,1,,,,,,,,,,,,,,,,,,,,,
,,,,,,,,,,,,,,,,,,,,,,,,,,,,,,,,,,,,,,,,,,,5f5146d7f21c6b36727ba867,5ff3a76ae766bba1e590e946,2021-01-04_15h40.42.400,Colour_Similarity_Experiment_v1,2020.1.2,Win32,60,5ff3a352adaa099f7659f8cc,,,,,,,,,,,,,,,,,,,,FF,,,,,,,,7,1.21619,,,,,,,,,,,,,,,,,,,,,,,,,,,,8,40.80001205,54.39999437,1,0,0,response1disk,6,32,1.14441E-05,4.799993634,1,0,0,rectangle,1.14441E-05,4.799993634,1,0,0,6,0,0,0.00051,1.14441E-05,4.799993634,1,0,0,0,31,31,37,1,,,,,,,,,,,,,,,,,,,,,
,,,,,,,,,,,,,,,,,,,,,,,,,,,,,,,,,,,,,,,,,,,5f5146d7f21c6b36727ba867,5ff3a76ae766bba1e590e946,2021-01-04_15h40.42.400,Colour_Similarity_Experiment_v1,2020.1.2,Win32,60,5ff3a352adaa099f7659f8cc,,,,,,,,,,,,,,,,,,,,PF,,,,,,,,7,1.087165,,,,,,,,,,,,,,,,,,,,,,,,,,,,1,48.80001217,67.19997015,1,0,0,response1disk,4,33,4.800011516,6.399993658,1,0,0,rectangle,4.800011516,6.399993658,1,0,0,6,7,0,0.00044,4.800011516,6.399993658,1,0,0,0,32,32,139,1,,,,,,,,,,,,,,,,,,,,,
,,,,,,,,,,,,,,,,,,,,,,,,,,,,,,,,,,,,,,,,,,,5f5146d7f21c6b36727ba867,5ff3a76ae766bba1e590e946,2021-01-04_15h40.42.400,Colour_Similarity_Experiment_v1,2020.1.2,Win32,60,5ff3a352adaa099f7659f8cc,,,,,,,,,,,,,,,,,,,,PF,,,,,,,,0,1.160025,,,,,,,,,,,,,,,,,,,,,,,,,,,,5,-40.79998916,74.39999467,1,0,0,response7disk,5,34,-6.399939823,0.799993575,1,0,0,rectangle,-6.399939823,0.799993575,1,0,0,6,4,0,0.000455,-6.399939823,0.799993575,1,0,0,0,33,33,94,1,,,,,,,,,,,,,,,,,,,,,
,,,,,,,,,,,,,,,,,,,,,,,,,,,,,,,,,,,,,,,,,,,5f5146d7f21c6b36727ba867,5ff3a76ae766bba1e590e946,2021-01-04_15h40.42.400,Colour_Similarity_Experiment_v1,2020.1.2,Win32,60,5ff3a352adaa099f7659f8cc,,,,,,,,,,,,,,,,,,,,FF,,,,,,,,7,1.24624,,,,,,,,,,,,,,,,,,,,,,,,,,,,4,44.0000121,80.79999477,1,0,0,response1disk,9,35,9.600060415,5.599993646,1,0,0,rectangle,9.600060415,5.599993646,1,0,0,6,6,0,0.000515,9.600060415,5.599993646,1,0,0,0,34,34,90,1,,,,,,,,,,,,,,,,,,,,,
,,,,,,,,,,,,,,,,,,,,,,,,,,,,,,,,,,,,,,,,,,,5f5146d7f21c6b36727ba867,5ff3a76ae766bba1e590e946,2021-01-04_15h40.42.400,Colour_Similarity_Experiment_v1,2020.1.2,Win32,60,5ff3a352adaa099f7659f8cc,,,,,,,,,,,,,,,,,,,,FF,,,,,,,,7,2.13294,,,,,,,,,,,,,,,,,,,,,,,,,,,,8,54.40001225,84.79999483,1,0,0,response1disk,7,36,8.000011563,3.19999361,1,0,0,rectangle,8.000011563,3.19999361,1,0,0,6,5,0,0.000475,8.000011563,3.19999361,1,0,0,0,35,35,86,1,,,,,,,,,,,,,,,,,,,,,
,,,,,,,,,,,,,,,,,,,,,,,,,,,,,,,,,,,,,,,,,,,5f5146d7f21c6b36727ba867,5ff3a76ae766bba1e590e946,2021-01-04_15h40.42.400,Colour_Similarity_Experiment_v1,2020.1.2,Win32,60,5ff3a352adaa099f7659f8cc,,,,,,,,,,,,,,,,,,,,PF,,,,,,,,6,3.35796,,,,,,,,,,,,,,,,,,,,,,,,,,,,9,84.0000127,41.59999418,1,0,0,response1disk,8,37,-7.199988663,1.599993587,1,0,0,rectangle,-7.199988663,1.599993587,1,0,0,6,4,0,0.000455,-7.199988663,1.599993587,1,0,0,0,36,36,67,1,,,,,,,,,,,,,,,,,,,,,
,,,,,,,,,,,,,,,,,,,,,,,,,,,,,,,,,,,,,,,,,,,5f5146d7f21c6b36727ba867,5ff3a76ae766bba1e590e946,2021-01-04_15h40.42.400,Colour_Similarity_Experiment_v1,2020.1.2,Win32,60,5ff3a352adaa099f7659f8cc,,,,,,,,,,,,,,,,,,,,PF,,,,,,,,7,1.701525,,,,,,,,,,,,,,,,,,,,,,,,,,,,7,24.0000118,73.59999466,1,0,0,response1disk,5,38,-3.999988616,11.19999373,1,0,0,rectangle,-3.999988616,11.19999373,1,0,0,6,2,0,0.00046,-3.999988616,11.19999373,1,0,0,0,37,37,92,1,,,,,,,,,,,,,,,,,,,,,
,,,,,,,,,,,,,,,,,,,,,,,,,,,,,,,,,,,,,,,,,,,5f5146d7f21c6b36727ba867,5ff3a76ae766bba1e590e946,2021-01-04_15h40.42.400,Colour_Similarity_Experiment_v1,2020.1.2,Win32,60,5ff3a352adaa099f7659f8cc,,,,,,,,,,,,,,,,,,,,FF,,,,,,,,7,1.31906,,,,,,,,,,,,,,,,,,,,,,,,,,,,9,34.40001196,88.79999489,1,0,0,response1disk,2,39,-15.19998878,0.799993575,1,0,0,rectangle,-47.99998927,-95.20000786,1,0,0,3,3,1,2.13159,-3.999988616,1.599993587,1,0,0,0,38,38,11,1,response5disk_3,rectangle,,,,,,,,,,,,,,,,,,,
,,,,,,,,,,,,,,,,,,,,,,,,,,,,,,,,,,,,,,,,,,,5f5146d7f21c6b36727ba867,5ff3a76ae766bba1e590e946,2021-01-04_15h40.42.400,Colour_Similarity_Experiment_v1,2020.1.2,Win32,60,5ff3a352adaa099f7659f8cc,,,,,,,,,,,,,,,,,,,,FF,,,,,,,,7,1.29424,,,,,,,,,,,,,,,,,,,,,,,,,,,,7,48.00001216,85.59999484,1,0,0,response1disk,9,40,-12.79998875,2.399993598,1,0,0,rectangle,-12.79998875,2.399993598,1,0,0,3,6,0,0.0005,-12.79998875,2.399993598,1,0,0,0,39,39,155,1,,,,,,,,,,,,,,,,,,,,,
,,,,,,,,,,,,,,,,,,,,,,,,,,,,,,,,,,,,,,,,,,,5f5146d7f21c6b36727ba867,5ff3a76ae766bba1e590e946,2021-01-04_15h40.42.400,Colour_Similarity_Experiment_v1,2020.1.2,Win32,60,5ff3a352adaa099f7659f8cc,,,,,,,,,,,,,,,,,,,,FF,,,,,,,,5,2.49008,,,,,,,,,,,,,,,,,,,,,,,,,,,,3,76.00001258,-54.40000725,1,0,0,response3disk,2,41,-1.59998858,-3.200006485,1,0,0,rectangle,-1.59998858,-3.200006485,1,0,0,3,3,0,0.000445,-1.59998858,-3.200006485,1,0,0,0,40,40,93,1,,,,,,,,,,,,,,,,,,,,,
,,,,,,,,,,,,,,,,,,,,,,,,,,,,,,,,,,,,,,,,,,,5f5146d7f21c6b36727ba867,5ff3a76ae766bba1e590e946,2021-01-04_15h40.42.400,Colour_Similarity_Experiment_v1,2020.1.2,Win32,60,5ff3a352adaa099f7659f8cc,,,,,,,,,,,,,,,,,,,,FF,,,,,,,,0,0.919955,,,,,,,,,,,,,,,,,,,,,,,,,,,,5,-26.39994012,75.19997027,1,0,0,response7disk,5,42,-4.799988627,-7.200006545,1,0,0,rectangle,-4.799988627,-7.200006545,1,0,0,3,2,0,0.00044,-4.799988627,-7.200006545,1,0,0,0,41,41,19,1,,,,,,,,,,,,,,,,,,,,,
,,,,,,,,,,,,,,,,,,,,,,,,,,,,,,,,,,,,,,,,,,,5f5146d7f21c6b36727ba867,5ff3a76ae766bba1e590e946,2021-01-04_15h40.42.400,Colour_Similarity_Experiment_v1,2020.1.2,Win32,60,5ff3a352adaa099f7659f8cc,,,,,,,,,,,,,,,,,,,,PF,,,,,,,,2,1.86127,,,,,,,,,,,,,,,,,,,,,,,,,,,,3,-77.59998971,-52.00000721,1,0,0,response5disk,5,43,-10.39993988,-4.000006497,1,0,0,rectangle,-10.39993988,-4.000006497,1,0,0,3,0,0,0.000685,-10.39993988,-4.000006497,1,0,0,0,42,42,66,1,,,,,,,,,,,,,,,,,,,,,
,,,,,,,,,,,,,,,,,,,,,,,,,,,,,,,,,,,,,,,,,,,5f5146d7f21c6b36727ba867,5ff3a76ae766bba1e590e946,2021-01-04_15h40.42.400,Colour_Similarity_Experiment_v1,2020.1.2,Win32,60,5ff3a352adaa099f7659f8cc,,,,,,,,,,,,,,,,,,,,PF,,,,,,,,7,0.894255,,,,,,,,,,,,,,,,,,,,,,,,,,,,9,44.80001211,61.59999448,1,0,0,response1disk,4,44,-15.19998878,-5.600006521,1,0,0,rectangle,-15.19998878,-5.600006521,1,0,0,3,5,0,0.00048,-15.19998878,-5.600006521,1,0,0,0,43,43,114,1,,,,,,,,,,,,,,,,,,,,,
,,,,,,,,,,,,,,,,,,,,,,,,,,,,,,,,,,,,,,,,,,,5f5146d7f21c6b36727ba867,5ff3a76ae766bba1e590e946,2021-01-04_15h40.42.400,Colour_Similarity_Experiment_v1,2020.1.2,Win32,60,5ff3a352adaa099f7659f8cc,,,,,,,,,,,,,,,,,,,,PF,,,,,,,,7,1.02956,,,,,,,,,,,,,,,,,,,,,,,,,,,,8,20.80001175,65.59999454,1,0,0,response1disk,2,45,5.600060356,2.399993598,1,0,0,rectangle,5.600060356,2.399993598,1,0,0,3,0,0,0.000455,5.600060356,2.399993598,1,0,0,0,44,44,83,1,,,,,,,,,,,,,,,,,,,,,
,,,,,,,,,,,,,,,,,,,,,,,,,,,,,,,,,,,,,,,,,,,5f5146d7f21c6b36727ba867,5ff3a76ae766bba1e590e946,2021-01-04_15h40.42.400,Colour_Similarity_Experiment_v1,2020.1.2,Win32,60,5ff3a352adaa099f7659f8cc,,,,,,,,,,,,,,,,,,,,FF,,,,,,,,7,0.97551,,,,,,,,,,,,,,,,,,,,,,,,,,,,8,24.80001181,68.79999459,1,0,0,response1disk,3,46,2.40001148,1.599993587,1,0,0,rectangle,2.40001148,1.599993587,1,0,0,3,4,0,0.00056,2.40001148,1.599993587,1,0,0,0,45,45,154,1,,,,,,,,,,,,,,,,,,,,,
,,,,,,,,,,,,,,,,,,,,,,,,,,,,,,,,,,,,,,,,,,,5f5146d7f21c6b36727ba867,5ff3a76ae766bba1e590e946,2021-01-04_15h40.42.400,Colour_Similarity_Experiment_v1,2020.1.2,Win32,60,5ff3a352adaa099f7659f8cc,,,,,,,,,,,,,,,,,,,,FF,,,,,,,,7,1.258245,,,,,,,,,,,,,,,,,,,,,,,,,,,,6,39.20001203,63.19997009,1,0,0,response1disk,1,47,-13.59998876,-13.60000664,1,0,0,rectangle,-13.59998876,-13.60000664,1,0,0,3,2,0,0.00076,-13.59998876,-13.60000664,1,0,0,0,46,46,5,1,,,,,,,,,,,,,,,,,,,,,
,,,,,,,,,,,,,,,,,,,,,,,,,,,,,,,,,,,,,,,,,,,5f5146d7f21c6b36727ba867,5ff3a76ae766bba1e590e946,2021-01-04_15h40.42.400,Colour_Similarity_Experiment_v1,2020.1.2,Win32,60,5ff3a352adaa099f7659f8cc,,,,,,,,,,,,,,,,,,,,PF,,,,,,,,6,2.188115,,,,,,,,,,,,,,,,,,,,,,,,,,,,4,95.20001286,35.9999941,1,0,0,response1disk,2,48,10.4000116,-1.600006461,1,0,0,rectangle,10.4000116,-1.600006461,1,0,0,3,5,0,0.000435,10.4000116,-1.600006461,1,0,0,0,47,47,108,1,,,,,,,,,,,,,,,,,,,,,
,,,,,,,,,,,,,,,,,,,,,,,,,,,,,,,,,,,,,,,,,,,5f5146d7f21c6b36727ba867,5ff3a76ae766bba1e590e946,2021-01-04_15h40.42.400,Colour_Similarity_Experiment_v1,2020.1.2,Win32,60,5ff3a352adaa099f7659f8cc,,,,,,,,,,,,,,,,,,,,PF,,,,,,,,0,0.86404,,,,,,,,,,,,,,,,,,,,,,,,,,,,9,-45.59998924,75.19997027,1,0,0,response7disk,9,49,7.200011551,-4.800006509,1,0,0,rectangle,7.200011551,-4.800006509,1,0,0,3,6,0,0.00052,7.200011551,-4.800006509,1,0,0,0,48,48,106,1,,,,,,,,,,,,,,,,,,,,,
,,,,,,,,,,,,,,,,,,,,,,,,,,,,,,,,,,,,,,,,,,,5f5146d7f21c6b36727ba867,5ff3a76ae766bba1e590e946,2021-01-04_15h40.42.400,Colour_Similarity_Experiment_v1,2020.1.2,Win32,60,5ff3a352adaa099f7659f8cc,,,,,,,,,,,,,,,,,,,,PF,,,,,,,,7,1.20071,,,,,,,,,,,,,,,,,,,,,,,,,,,,8,52.00001222,77.59999472,1,0,0,response1disk,6,50,1.600060296,3.999993622,1,0,0,rectangle,-59.99998945,90.39999491,1,0,0,0,0,1,1.893015,-7.999988675,-6.4373E-06,1,0,0,0,49,49,161,1,response7disk_3,rectangle,,,,,,,,,,,,,,,,,,,
,,,,,,,,,,,,,,,,,,,,,,,,,,,,,,,,,,,,,,,,,,,5f5146d7f21c6b36727ba867,5ff3a76ae766bba1e590e946,2021-01-04_15h40.42.400,Colour_Similarity_Experiment_v1,2020.1.2,Win32,60,5ff3a352adaa099f7659f8cc,,,,,,,,,,,,,,,,,,,,FF,,,,,,,,7,1.007135,,,,,,,,,,,,,,,,,,,,,,,,,,,,8,44.80001211,69.5999946,1,0,0,response1disk,4,51,4.800011516,8.799993694,1,0,0,rectangle,4.800011516,8.799993694,1,0,0,0,0,0,0.000495,4.800011516,8.799993694,1,0,0,0,50,50,88,1,,,,,,,,,,,,,,,,,,,,,
,,,,,,,,,,,,,,,,,,,,,,,,,,,,,,,,,,,,,,,,,,,5f5146d7f21c6b36727ba867,5ff3a76ae766bba1e590e946,2021-01-04_15h40.42.400,Colour_Similarity_Experiment_v1,2020.1.2,Win32,60,5ff3a352adaa099f7659f8cc,,,,,,,,,,,,,,,,,,,,PF,,,,,,,,5,2.137065,,,,,,,,,,,,,,,,,,,,,,,,,,,,7,81.60001266,-44.8000071,1,0,0,response3disk,8,52,12.80001163,-4.000006497,1,0,0,rectangle,12.80001163,-4.000006497,1,0,0,0,4,0,0.00045,12.80001163,-4.000006497,1,0,0,0,51,51,140,1,,,,,,,,,,,,,,,,,,,,,
,,,,,,,,,,,,,,,,,,,,,,,,,,,,,,,,,,,,,,,,,,,5f5146d7f21c6b36727ba867,5ff3a76ae766bba1e590e946,2021-01-04_15h40.42.400,Colour_Similarity_Experiment_v1,2020.1.2,Win32,60,5ff3a352adaa099f7659f8cc,,,,,,,,,,,,,,,,,,,,PF,,,,,,,,7,1.87194,,,,,,,,,,,,,,,,,,,,,,,,,,,,5,32.00001192,74.39999467,1,0,0,response1disk,9,53,0.800011456,-0.800006449,1,0,0,rectangle,-39.99998915,87.19997045,1,0,0,0,0,1,1.649285,-8.799988687,2.399993598,1,0,0,0,52,52,136,1,response7disk_3,rectangle,,,,,,,,,,,,,,,,,,,
,,,,,,,,,,,,,,,,,,,,,,,,,,,,,,,,,,,,,,,,,,,5f5146d7f21c6b36727ba867,5ff3a76ae766bba1e590e946,2021-01-04_15h40.42.400,Colour_Similarity_Experiment_v1,2020.1.2,Win32,60,5ff3a352adaa099f7659f8cc,,,,,,,,,,,,,,,,,,,,FF,,,,,,,,7,1.18538,,,,,,,,,,,,,,,,,,,,,,,,,,,,4,51.20001221,72.79999465,1,0,0,response1disk,6,54,13.60006047,5.599993646,1,0,0,rectangle,13.60006047,5.599993646,1,0,0,0,1,0,0.000455,13.60006047,5.599993646,1,0,0,0,53,53,122,1,,,,,,,,,,,,,,,,,,,,,
,,,,,,,,,,,,,,,,,,,,,,,,,,,,,,,,,,,,,,,,,,,5f5146d7f21c6b36727ba867,5ff3a76ae766bba1e590e946,2021-01-04_15h40.42.400,Colour_Similarity_Experiment_v1,2020.1.2,Win32,60,5ff3a352adaa099f7659f8cc,,,,,,,,,,,,,,,,,,,,FF,,,,,,,,7,1.210915,,,,,,,,,,,,,,,,,,,,,,,,,,,,2,25.60006065,71.19997021,1,0,0,response1disk,5,55,-7.999988675,5.599993646,1,0,0,rectangle,-7.999988675,5.599993646,1,0,0,0,6,0,0.00044,-7.999988675,5.599993646,1,0,0,0,54,54,80,1,,,,,,,,,,,,,,,,,,,,,
,,,,,,,,,,,,,,,,,,,,,,,,,,,,,,,,,,,,,,,,,,,5f5146d7f21c6b36727ba867,5ff3a76ae766bba1e590e946,2021-01-04_15h40.42.400,Colour_Similarity_Experiment_v1,2020.1.2,Win32,60,5ff3a352adaa099f7659f8cc,,,,,,,,,,,,,,,,,,,,FF,,,,,,,,2,1.928045,,,,,,,,,,,,,,,,,,,,,,,,,,,,4,-83.99998981,-60.00000733,1,0,0,response5disk,5,56,8.800011575,-2.400006473,1,0,0,rectangle,8.800011575,-2.400006473,1,0,0,0,7,0,0.00044,8.800011575,-2.400006473,1,0,0,0,55,55,116,1,,,,,,,,,,,,,,,,,,,,,
,,,,,,,,,,,,,,,,,,,,,,,,,,,,,,,,,,,,,,,,,,,5f5146d7f21c6b36727ba867,5ff3a76ae766bba1e590e946,2021-01-04_15h40.42.400,Colour_Similarity_Experiment_v1,2020.1.2,Win32,60,5ff3a352adaa099f7659f8cc,,,,,,,,,,,,,,,,,,,,FF,,,,,,,,7,1.451845,,,,,,,,,,,,,,,,,,,,,,,,,,,,5,47.20001215,85.59999484,1,0,0,response1disk,1,57,4.800011516,11.19999373,1,0,0,rectangle,4.800011516,11.19999373,1,0,0,0,6,0,0.00048,4.800011516,11.19999373,1,0,0,0,56,56,131,1,,,,,,,,,,,,,,,,,,,,,
,,,,,,,,,,,,,,,,,,,,,,,,,,,,,,,,,,,,,,,,,,,5f5146d7f21c6b36727ba867,5ff3a76ae766bba1e590e946,2021-01-04_15h40.42.400,Colour_Similarity_Experiment_v1,2020.1.2,Win32,60,5ff3a352adaa099f7659f8cc,,,,,,,,,,,,,,,,,,,,PF,,,,,,,,4,2.591105,,,,,,,,,,,,,,,,,,,,,,,,,,,,2,51.20001221,-96.80000788,1,0,0,response3disk,3,58,11.20001161,-5.600006521,1,0,0,rectangle,11.20001161,-5.600006521,1,0,0,0,7,0,0.00045,11.20001161,-5.600006521,1,0,0,0,57,57,69,1,,,,,,,,,,,,,,,,,,,,,
,,,,,,,,,,,,,,,,,,,,,,,,,,,,,,,,,,,,,,,,,,,5f5146d7f21c6b36727ba867,5ff3a76ae766bba1e590e946,2021-01-04_15h40.42.400,Colour_Similarity_Experiment_v1,2020.1.2,Win32,60,5ff3a352adaa099f7659f8cc,,,,,,,,,,,,,,,,,,,,FF,,,,,,,,1,1.862735,,,,,,,,,,,,,,,,,,,,,,,,,,,,3,-75.19998968,39.19996973,1,0,0,response7disk,4,59,12.80001163,-5.600006521,1,0,0,rectangle,12.80001163,-5.600006521,1,0,0,0,1,0,0.00049,12.80001163,-5.600006521,1,0,0,0,58,58,110,1,,,,,,,,,,,,,,,,,,,,,
,,,,,,,,,,,,,,,,,,,,,,,,,,,,,,,,,,,,,,,,,,,5f5146d7f21c6b36727ba867,5ff3a76ae766bba1e590e946,2021-01-04_15h40.42.400,Colour_Similarity_Experiment_v1,2020.1.2,Win32,60,5ff3a352adaa099f7659f8cc,,,,,,,,,,,,,,,,,,,,FF,,,,,,,,7,1.17494,,,,,,,,,,,,,,,,,,,,,,,,,,,,7,36.80001199,72.79999465,1,0,0,response1disk,1,60,16.00001168,-1.600006461,1,0,0,rectangle,16.00001168,-1.600006461,1,0,0,0,3,0,0.00045,16.00001168,-1.600006461,1,0,0,0,59,59,132,1,,,,,,,,,,,,,,,,,,,,,
,,,,,,,,,,,,,,,,,,,,,,,,,,,,,,,,,,,,,,,,,,,5f5146d7f21c6b36727ba867,5ff3a76ae766bba1e590e946,2021-01-04_15h40.42.400,Colour_Similarity_Experiment_v1,2020.1.2,Win32,60,5ff3a352adaa099f7659f8cc,,,,,,,,,,,,,,,,,,,,PF,,,,,,,,7,1.043795,,,,,,,,,,,,,,,,,,,,,,,,,,,,7,26.40001184,63.19997009,1,0,0,response1disk,3,61,0.800011456,-6.4373E-06,1,0,0,rectangle,0.800011456,-6.4373E-06,1,0,0,0,5,0,0.00043,0.800011456,-6.4373E-06,1,0,0,0,60,60,81,1,,,,,,,,,,,,,,,,,,,,,
,,,,,,,,,,,,,,,,,,,,,,,,,,,,,,,,,,,,,,,,,,,5f5146d7f21c6b36727ba867,5ff3a76ae766bba1e590e946,2021-01-04_15h40.42.400,Colour_Similarity_Experiment_v1,2020.1.2,Win32,60,5ff3a352adaa099f7659f8cc,,,,,,,,,,,,,,,,,,,,PF,,,,,,,,7,1.529785,,,,,,,,,,,,,,,,,,,,,,,,,,,,6,50.4000122,73.59999466,1,0,0,response1disk,3,62,24.0000118,7.999993682,1,0,0,rectangle,24.0000118,7.999993682,1,0,0,0,2,0,0.00046,24.0000118,7.999993682,1,0,0,0,61,61,26,1,,,,,,,,,,,,,,,,,,,,,
,,,,,,,,,,,,,,,,,,,,,,,,,,,,,,,,,,,,,,,,,,,5f5146d7f21c6b36727ba867,5ff3a76ae766bba1e590e946,2021-01-04_15h40.42.400,Colour_Similarity_Experiment_v1,2020.1.2,Win32,60,5ff3a352adaa099f7659f8cc,,,,,,,,,,,,,,,,,,,,FF,,,,,,,,7,0.88859,,,,,,,,,,,,,,,,,,,,,,,,,,,,7,22.40001178,60.79999447,1,0,0,response1disk,2,63,7.200011551,8.799993694,1,0,0,rectangle,7.200011551,8.799993694,1,0,0,0,1,0,0.00045,7.200011551,8.799993694,1,0,0,0,62,62,138,1,,,,,,,,,,,,,,,,,,,,,
,,,,,,,,,,,,,,,,,,,,,,,,,,,,,,,,,,,,,,,,,,,5f5146d7f21c6b36727ba867,5ff3a76ae766bba1e590e946,2021-01-04_15h40.42.400,Colour_Similarity_Experiment_v1,2020.1.2,Win32,60,5ff3a352adaa099f7659f8cc,,,,,,,,,,,,,,,,,,,,PF,,,,,,,,7,0.8621,,,,,,,,,,,,,,,,,,,,,,,,,,,,9,40.80001205,63.19997009,1,0,0,response1disk,7,64,20.80001175,8.799993694,1,0,0,rectangle,20.80001175,8.799993694,1,0,0,0,5,0,0.000455,20.80001175,8.799993694,1,0,0,0,63,63,121,1,,,,,,,,,,,,,,,,,,,,,
,,,,,,,,,,,,,,,,,,,,,,,,,,,,,,,,,,,,,,,,,,,5f5146d7f21c6b36727ba867,5ff3a76ae766bba1e590e946,2021-01-04_15h40.42.400,Colour_Similarity_Experiment_v1,2020.1.2,Win32,60,5ff3a352adaa099f7659f8cc,,,,,,,,,,,,,,,,,,,,FF,,,,,,,,6,1.63473,,,,,,,,,,,,,,,,,,,,,,,,,,,,7,78.40001261,32.79999405,1,0,0,response1disk,5,65,28.00001186,3.999993622,1,0,0,rectangle,28.00001186,3.999993622,1,0,0,0,2,0,0.000475,28.00001186,3.999993622,1,0,0,0,64,64,156,1,,,,,,,,,,,,,,,,,,,,,
,,,,,,,,,,,,,,,,,,,,,,,,,,,,,,,,,,,,,,,,,,,5f5146d7f21c6b36727ba867,5ff3a76ae766bba1e590e946,2021-01-04_15h40.42.400,Colour_Similarity_Experiment_v1,2020.1.2,Win32,60,5ff3a352adaa099f7659f8cc,,,,,,,,,,,,,,,,,,,,PF,,,,,,,,7,1.00647,,,,,,,,,,,,,,,,,,,,,,,,,,,,3,24.0000118,87.99999487,1,0,0,response1disk,9,66,8.800011575,1.599993587,1,0,0,rectangle,8.800011575,1.599993587,1,0,0,0,4,0,0.00054,8.800011575,1.599993587,1,0,0,0,65,65,79,1,,,,,,,,,,,,,,,,,,,,,
,,,,,,,,,,,,,,,,,,,,,,,,,,,,,,,,,,,,,,,,,,,5f5146d7f21c6b36727ba867,5ff3a76ae766bba1e590e946,2021-01-04_15h40.42.400,Colour_Similarity_Experiment_v1,2020.1.2,Win32,60,5ff3a352adaa099f7659f8cc,,,,,,,,,,,,,,,,,,,,PF,,,,,,,,0,1.164275,,,,,,,,,,,,,,,,,,,,,,,,,,,,7,-48.79998928,92.79999495,1,0,0,response7disk,7,67,-21.59998888,-0.800006449,1,0,0,rectangle,-21.59998888,-0.800006449,1,0,0,0,1,0,0.000475,-21.59998888,-0.800006449,1,0,0,0,66,66,51,1,,,,,,,,,,,,,,,,,,,,,
,,,,,,,,,,,,,,,,,,,,,,,,,,,,,,,,,,,,,,,,,,,5f5146d7f21c6b36727ba867,5ff3a76ae766bba1e590e946,2021-01-04_15h40.42.400,Colour_Similarity_Experiment_v1,2020.1.2,Win32,60,5ff3a352adaa099f7659f8cc,,,,,,,,,,,,,,,,,,,,FF,,,,,,,,7,0.957165,,,,,,,,,,,,,,,,,,,,,,,,,,,,2,48.80001217,64.79999453,1,0,0,response1disk,8,68,9.600060415,-6.400006533,1,0,0,rectangle,9.600060415,-6.400006533,1,0,0,0,5,0,0.00053,9.600060415,-6.400006533,1,0,0,0,67,67,62,1,,,,,,,,,,,,,,,,,,,,,
,,,,,,,,,,,,,,,,,,,,,,,,,,,,,,,,,,,,,,,,,,,5f5146d7f21c6b36727ba867,5ff3a76ae766bba1e590e946,2021-01-04_15h40.42.400,Colour_Similarity_Experiment_v1,2020.1.2,Win32,60,5ff3a352adaa099f7659f8cc,,,,,,,,,,,,,,,,,,,,PF,,,,,,,,1,2.5672,,,,,,,,,,,,,,,,,,,,,,,,,,,,4,-72.79998964,27.99999398,1,0,0,response7disk,3,69,1.600060296,10.39999372,1,0,0,rectangle,1.600060296,10.39999372,1,0,0,0,6,0,0.00049,1.600060296,10.39999372,1,0,0,0,68,68,89,1,,,,,,,,,,,,,,,,,,,,,
,,,,,,,,,,,,,,,,,,,,,,,,,,,,,,,,,,,,,,,,,,,5f5146d7f21c6b36727ba867,5ff3a76ae766bba1e590e946,2021-01-04_15h40.42.400,Colour_Similarity_Experiment_v1,2020.1.2,Win32,60,5ff3a352adaa099f7659f8cc,,,,,,,,,,,,,,,,,,,,FF,,,,,,,,7,0.924495,,,,,,,,,,,,,,,,,,,,,,,,,,,,1,36.80001199,95.99999499,1,0,0,response1disk,4,70,-16.79998881,-0.800006449,1,0,0,rectangle,-16.79998881,-0.800006449,1,0,0,0,2,0,0.0005,-16.79998881,-0.800006449,1,0,0,0,69,69,135,1,,,,,,,,,,,,,,,,,,,,,
,,,,,,,,,,,,,,,,,,,,,,,,,,,,,,,,,,,,,,,,,,,5f5146d7f21c6b36727ba867,5ff3a76ae766bba1e590e946,2021-01-04_15h40.42.400,Colour_Similarity_Experiment_v1,2020.1.2,Win32,60,5ff3a352adaa099f7659f8cc,,,,,,,,,,,,,,,,,,,,FF,,,,,,,,3,1.838205,,,,,,,,,,,,,,,,,,,,,,,,,,,,6,-52.79998934,-79.20000762,1,0,0,response5disk,5,71,11.20001161,0.799993575,1,0,0,rectangle,11.20001161,0.799993575,1,0,0,0,2,0,0.000435,11.20001161,0.799993575,1,0,0,0,70,70,126,1,,,,,,,,,,,,,,,,,,,,,
,,,,,,,,,,,,,,,,,,,,,,,,,,,,,,,,,,,,,,,,,,,5f5146d7f21c6b36727ba867,5ff3a76ae766bba1e590e946,2021-01-04_15h40.42.400,Colour_Similarity_Experiment_v1,2020.1.2,Win32,60,5ff3a352adaa099f7659f8cc,,,,,,,,,,,,,,,,,,,,FF,,,,,,,,3,1.23428,,,,,,,,,,,,,,,,,,,,,,,,,,,,3,-56.7999894,-93.60005666,1,0,0,response5disk,5,72,8.000011563,-7.200006545,1,0,0,rectangle,8.000011563,-7.200006545,1,0,0,0,3,0,0.000455,8.000011563,-7.200006545,1,0,0,0,71,71,101,1,,,,,,,,,,,,,,,,,,,,,
,,,,,,,,,,,,,,,,,,,,,,,,,,,,,,,,,,,,,,,,,,,5f5146d7f21c6b36727ba867,5ff3a76ae766bba1e590e946,2021-01-04_15h40.42.400,Colour_Similarity_Experiment_v1,2020.1.2,Win32,60,5ff3a352adaa099f7659f8cc,,,,,,,,,,,,,,,,,,,,PF,,,,,,,,7,1.470515,,,,,,,,,,,,,,,,,,,,,,,,,,,,9,39.20001203,63.19997009,1,0,0,response1disk,2,73,17.60006053,4.799993634,1,0,0,rectangle,17.60006053,4.799993634,1,0,0,0,1,0,0.000485,17.60006053,4.799993634,1,0,0,0,72,72,157,1,,,,,,,,,,,,,,,,,,,,,
,,,,,,,,,,,,,,,,,,,,,,,,,,,,,,,,,,,,,,,,,,,5f5146d7f21c6b36727ba867,5ff3a76ae766bba1e590e946,2021-01-04_15h40.42.400,Colour_Similarity_Experiment_v1,2020.1.2,Win32,60,5ff3a352adaa099f7659f8cc,,,,,,,,,,,,,,,,,,,,PF,,,,,,,,7,0.90117,,,,,,,,,,,,,,,,,,,,,,,,,,,,3,57.6000123,94.39999497,1,0,0,response1disk,8,74,-3.199988604,12.79999375,1,0,0,rectangle,-3.199988604,12.79999375,1,0,0,0,4,0,0.000445,-3.199988604,12.79999375,1,0,0,0,73,73,3,1,,,,,,,,,,,,,,,,,,,,,
,,,,,,,,,,,,,,,,,,,,,,,,,,,,,,,,,,,,,,,,,,,5f5146d7f21c6b36727ba867,5ff3a76ae766bba1e590e946,2021-01-04_15h40.42.400,Colour_Similarity_Experiment_v1,2020.1.2,Win32,60,5ff3a352adaa099f7659f8cc,,,,,,,,,,,,,,,,,,,,FF,,,,,,,,7,0.80028,,,,,,,,,,,,,,,,,,,,,,,,,,,,6,31.20001191,61.59999448,1,0,0,response1disk,8,75,15.20001167,-7.200006545,1,0,0,rectangle,15.20001167,-7.200006545,1,0,0,0,2,0,0.000495,15.20001167,-7.200006545,1,0,0,0,74,74,133,1,,,,,,,,,,,,,,,,,,,,,
,,,,,,,,,,,,,,,,,,,,,,,,,,,,,,,,,,,,,,,,,,,5f5146d7f21c6b36727ba867,5ff3a76ae766bba1e590e946,2021-01-04_15h40.42.400,Colour_Similarity_Experiment_v1,2020.1.2,Win32,60,5ff3a352adaa099f7659f8cc,,,,,,,,,,,,,,,,,,,,PF,,,,,,,,7,0.881755,,,,,,,,,,,,,,,,,,,,,,,,,,,,1,35.20001197,56.79999441,1,0,0,response1disk,6,76,4.000011504,6.399993658,1,0,0,rectangle,4.000011504,6.399993658,1,0,0,0,4,0,0.000455,4.000011504,6.399993658,1,0,0,0,75,75,144,1,,,,,,,,,,,,,,,,,,,,,
,,,,,,,,,,,,,,,,,,,,,,,,,,,,,,,,,,,,,,,,,,,5f5146d7f21c6b36727ba867,5ff3a76ae766bba1e590e946,2021-01-04_15h40.42.400,Colour_Similarity_Experiment_v1,2020.1.2,Win32,60,5ff3a352adaa099f7659f8cc,,,,,,,,,,,,,,,,,,,,PF,,,,,,,,7,1.038485,,,,,,,,,,,,,,,,,,,,,,,,,,,,5,36.80001199,67.19997015,1,0,0,response1disk,1,77,8.800011575,11.19999373,1,0,0,rectangle,98.40001291,68.79999459,1,0,0,6,6,1,1.871645,7.200011551,5.599993646,1,0,0,0,76,76,159,1,response1disk_3,rectangle,,,,,,,,,,,,,,,,,,,
,,,,,,,,,,,,,,,,,,,,,,,,,,,,,,,,,,,,,,,,,,,5f5146d7f21c6b36727ba867,5ff3a76ae766bba1e590e946,2021-01-04_15h40.42.400,Colour_Similarity_Experiment_v1,2020.1.2,Win32,60,5ff3a352adaa099f7659f8cc,,,,,,,,,,,,,,,,,,,,FF,,,,,,,,6,1.89993,,,,,,,,,,,,,,,,,,,,,,,,,,,,2,68.80001247,28.79999399,1,0,0,response1disk,1,78,10.4000116,-6.4373E-06,1,0,0,rectangle,10.4000116,-6.4373E-06,1,0,0,6,6,0,0.00045,10.4000116,-6.4373E-06,1,0,0,0,77,77,85,1,,,,,,,,,,,,,,,,,,,,,
,,,,,,,,,,,,,,,,,,,,,,,,,,,,,,,,,,,,,,,,,,,5f5146d7f21c6b36727ba867,5ff3a76ae766bba1e590e946,2021-01-04_15h40.42.400,Colour_Similarity_Experiment_v1,2020.1.2,Win32,60,5ff3a352adaa099f7659f8cc,,,,,,,,,,,,,,,,,,,,PF,,,,,,,,7,0.71854,,,,,,,,,,,,,,,,,,,,,,,,,,,,3,39.20001203,57.59999442,1,0,0,response1disk,6,79,2.40001148,7.19999367,1,0,0,rectangle,2.40001148,7.19999367,1,0,0,6,6,0,0.000475,2.40001148,7.19999367,1,0,0,0,78,78,47,1,,,,,,,,,,,,,,,,,,,,,
,,,,,,,,,,,,,,,,,,,,,,,,,,,,,,,,,,,,,,,,,,,5f5146d7f21c6b36727ba867,5ff3a76ae766bba1e590e946,2021-01-04_15h40.42.400,Colour_Similarity_Experiment_v1,2020.1.2,Win32,60,5ff3a352adaa099f7659f8cc,,,,,,,,,,,,,,,,,,,,PF,,,,,,,,7,0.726735,,,,,,,,,,,,,,,,,,,,,,,,,,,,1,44.0000121,55.9999944,1,0,0,response1disk,3,80,-10.39993988,7.19999367,1,0,0,rectangle,-10.39993988,7.19999367,1,0,0,6,6,0,0.000435,-10.39993988,7.19999367,1,0,0,0,79,79,1,1,,,,,,,,,,,,,,,,,,,,,
,,,,,,,,,,,,,,,,,,,,,,,,,,,,,,,,,,,,,,,,,,,5f5146d7f21c6b36727ba867,5ff3a76ae766bba1e590e946,2021-01-04_15h40.42.400,Colour_Similarity_Experiment_v1,2020.1.2,Win32,60,5ff3a352adaa099f7659f8cc,,,,,,,,,,,,,,,,,,,,PF,,,,,,,,7,0.874105,,,,,,,,,,,,,,,,,,,,,,,,,,,,2,35.20001197,56.79999441,1,0,0,response1disk,4,81,3.200011492,6.399993658,1,0,0,rectangle,3.200011492,6.399993658,1,0,0,6,7,0,0.00045,3.200011492,6.399993658,1,0,0,0,80,80,127,1,,,,,,,,,,,,,,,,,,,,,
,,,,,,,,,,,,,,,,,,,,,,,,,,,,,,,,,,,,,,,,,,,5f5146d7f21c6b36727ba867,5ff3a76ae766bba1e590e946,2021-01-04_15h40.42.400,Colour_Similarity_Experiment_v1,2020.1.2,Win32,60,5ff3a352adaa099f7659f8cc,,,,,,,,,,,,,,,,,,,,FF,,,,,,,,7,0.87919,,,,,,,,,,,,,,,,,,,,,,,,,,,,1,40.80001205,60.79999447,1,0,0,response1disk,8,82,-3.999988616,1.599993587,1,0,0,rectangle,-3.999988616,1.599993587,1,0,0,6,3,0,0.000515,-3.999988616,1.599993587,1,0,0,0,81,81,27,1,,,,,,,,,,,,,,,,,,,,,
,,,,,,,,,,,,,,,,,,,,,,,,,,,,,,,,,,,,,,,,,,,5f5146d7f21c6b36727ba867,5ff3a76ae766bba1e590e946,2021-01-04_15h40.42.400,Colour_Similarity_Experiment_v1,2020.1.2,Win32,60,5ff3a352adaa099f7659f8cc,,,,,,,,,,,,,,,,,,,,PF,,,,,,,,7,1.08504,,,,,,,,,,,,,,,,,,,,,,,,,,,,9,24.0000118,46.39999425,1,0,0,response1disk,6,83,0.800011456,6.399993658,1,0,0,rectangle,0.800011456,6.399993658,1,0,0,6,2,0,0.00049,0.800011456,6.399993658,1,0,0,0,82,82,148,1,,,,,,,,,,,,,,,,,,,,,
,,,,,,,,,,,,,,,,,,,,,,,,,,,,,,,,,,,,,,,,,,,5f5146d7f21c6b36727ba867,5ff3a76ae766bba1e590e946,2021-01-04_15h40.42.400,Colour_Similarity_Experiment_v1,2020.1.2,Win32,60,5ff3a352adaa099f7659f8cc,,,,,,,,,,,,,,,,,,,,FF,,,,,,,,2,1.863315,,,,,,,,,,,,,,,,,,,,,,,,,,,,4,-73.59998965,-56.00000727,1,0,0,response5disk,3,84,-2.399939764,-3.200006485,1,0,0,rectangle,-2.399939764,-3.200006485,1,0,0,6,2,0,0.000485,-2.399939764,-3.200006485,1,0,0,0,83,83,77,1,,,,,,,,,,,,,,,,,,,,,
,,,,,,,,,,,,,,,,,,,,,,,,,,,,,,,,,,,,,,,,,,,5f5146d7f21c6b36727ba867,5ff3a76ae766bba1e590e946,2021-01-04_15h40.42.400,Colour_Similarity_Experiment_v1,2020.1.2,Win32,60,5ff3a352adaa099f7659f8cc,,,,,,,,,,,,,,,,,,,,PF,,,,,,,,0,1.215105,,,,,,,,,,,,,,,,,,,,,,,,,,,,3,-42.39994036,74.39999467,1,0,0,response7disk,3,85,-19.99998885,9.599993706,1,0,0,rectangle,-19.99998885,9.599993706,1,0,0,6,1,0,0.00046,-19.99998885,9.599993706,1,0,0,0,84,84,4,1,,,,,,,,,,,,,,,,,,,,,
,,,,,,,,,,,,,,,,,,,,,,,,,,,,,,,,,,,,,,,,,,,5f5146d7f21c6b36727ba867,5ff3a76ae766bba1e590e946,2021-01-04_15h40.42.400,Colour_Similarity_Experiment_v1,2020.1.2,Win32,60,5ff3a352adaa099f7659f8cc,,,,,,,,,,,,,,,,,,,,FF,,,,,,,,7,1.355395,,,,,,,,,,,,,,,,,,,,,,,,,,,,7,28.80001187,79.99999475,1,0,0,response1disk,3,86,-3.199988604,3.999993622,1,0,0,rectangle,-3.199988604,3.999993622,1,0,0,6,6,0,0.000455,-3.199988604,3.999993622,1,0,0,0,85,85,73,1,,,,,,,,,,,,,,,,,,,,,
,,,,,,,,,,,,,,,,,,,,,,,,,,,,,,,,,,,,,,,,,,,5f5146d7f21c6b36727ba867,5ff3a76ae766bba1e590e946,2021-01-04_15h40.42.400,Colour_Similarity_Experiment_v1,2020.1.2,Win32,60,5ff3a352adaa099f7659f8cc,,,,,,,,,,,,,,,,,,,,PF,,,,,,,,7,0.95057,,,,,,,,,,,,,,,,,,,,,,,,,,,,1,37.60006083,60.79999447,1,0,0,response1disk,7,87,8.000011563,7.999993682,1,0,0,rectangle,8.000011563,7.999993682,1,0,0,6,6,0,0.000435,8.000011563,7.999993682,1,0,0,0,86,86,150,1,,,,,,,,,,,,,,,,,,,,,
,,,,,,,,,,,,,,,,,,,,,,,,,,,,,,,,,,,,,,,,,,,5f5146d7f21c6b36727ba867,5ff3a76ae766bba1e590e946,2021-01-04_15h40.42.400,Colour_Similarity_Experiment_v1,2020.1.2,Win32,60,5ff3a352adaa099f7659f8cc,,,,,,,,,,,,,,,,,,,,PF,,,,,,,,7,0.957545,,,,,,,,,,,,,,,,,,,,,,,,,,,,4,20.00001174,74.39999467,1,0,0,response1disk,6,88,-3.999988616,10.39999372,1,0,0,rectangle,-3.999988616,10.39999372,1,0,0,6,6,0,0.000455,-3.999988616,10.39999372,1,0,0,0,87,87,120,1,,,,,,,,,,,,,,,,,,,,,
,,,,,,,,,,,,,,,,,,,,,,,,,,,,,,,,,,,,,,,,,,,5f5146d7f21c6b36727ba867,5ff3a76ae766bba1e590e946,2021-01-04_15h40.42.400,Colour_Similarity_Experiment_v1,2020.1.2,Win32,60,5ff3a352adaa099f7659f8cc,,,,,,,,,,,,,,,,,,,,FF,,,,,,,,7,0.619745,,,,,,,,,,,,,,,,,,,,,,,,,,,,9,37.60006083,55.19996997,1,0,0,response1disk,5,89,1.600060296,6.399993658,1,0,0,rectangle,1.600060296,6.399993658,1,0,0,6,4,0,0.000425,1.600060296,6.399993658,1,0,0,0,88,88,128,1,,,,,,,,,,,,,,,,,,,,,
,,,,,,,,,,,,,,,,,,,,,,,,,,,,,,,,,,,,,,,,,,,5f5146d7f21c6b36727ba867,5ff3a76ae766bba1e590e946,2021-01-04_15h40.42.400,Colour_Similarity_Experiment_v1,2020.1.2,Win32,60,5ff3a352adaa099f7659f8cc,,,,,,,,,,,,,,,,,,,,PF,,,,,,,,7,0.7874,,,,,,,,,,,,,,,,,,,,,,,,,,,,2,45.60006095,70.39999461,1,0,0,response1disk,6,90,12.80001163,3.19999361,1,0,0,rectangle,12.80001163,3.19999361,1,0,0,6,2,0,0.00045,12.80001163,3.19999361,1,0,0,0,89,89,113,1,,,,,,,,,,,,,,,,,,,,,
,,,,,,,,,,,,,,,,,,,,,,,,,,,,,,,,,,,,,,,,,,,5f5146d7f21c6b36727ba867,5ff3a76ae766bba1e590e946,2021-01-04_15h40.42.400,Colour_Similarity_Experiment_v1,2020.1.2,Win32,60,5ff3a352adaa099f7659f8cc,,,,,,,,,,,,,,,,,,,,PF,,,,,,,,7,0.843565,,,,,,,,,,,,,,,,,,,,,,,,,,,,4,34.40001196,59.99999446,1,0,0,response1disk,8,91,-18.39994,1.599993587,1,0,0,rectangle,-18.39994,1.599993587,1,0,0,6,5,0,0.000445,-18.39994,1.599993587,1,0,0,0,90,90,124,1,,,,,,,,,,,,,,,,,,,,,
,,,,,,,,,,,,,,,,,,,,,,,,,,,,,,,,,,,,,,,,,,,5f5146d7f21c6b36727ba867,5ff3a76ae766bba1e590e946,2021-01-04_15h40.42.400,Colour_Similarity_Experiment_v1,2020.1.2,Win32,60,5ff3a352adaa099f7659f8cc,,,,,,,,,,,,,,,,,,,,PF,,,,,,,,5,2.347695,,,,,,,,,,,,,,,,,,,,,,,,,,,,6,80.00001264,-49.60000718,1,0,0,response3disk,5,92,5.600060356,4.799993634,1,0,0,rectangle,5.600060356,4.799993634,1,0,0,6,7,0,0.000455,5.600060356,4.799993634,1,0,0,0,91,91,59,1,,,,,,,,,,,,,,,,,,,,,
,,,,,,,,,,,,,,,,,,,,,,,,,,,,,,,,,,,,,,,,,,,5f5146d7f21c6b36727ba867,5ff3a76ae766bba1e590e946,2021-01-04_15h40.42.400,Colour_Similarity_Experiment_v1,2020.1.2,Win32,60,5ff3a352adaa099f7659f8cc,,,,,,,,,,,,,,,,,,,,PF,,,,,,,,7,0.806475,,,,,,,,,,,,,,,,,,,,,,,,,,,,6,25.60006065,57.59999442,1,0,0,response1disk,2,93,-0.799988568,-8.000006557,1,0,0,rectangle,-0.799988568,-8.000006557,1,0,0,6,3,0,0.00049,-0.799988568,-8.000006557,1,0,0,0,92,92,130,1,,,,,,,,,,,,,,,,,,,,,
,,,,,,,,,,,,,,,,,,,,,,,,,,,,,,,,,,,,,,,,,,,5f5146d7f21c6b36727ba867,5ff3a76ae766bba1e590e946,2021-01-04_15h40.42.400,Colour_Similarity_Experiment_v1,2020.1.2,Win32,60,5ff3a352adaa099f7659f8cc,,,,,,,,,,,,,,,,,,,,PF,,,,,,,,7,0.604305,,,,,,,,,,,,,,,,,,,,,,,,,,,,8,37.60006083,50.39999431,1,0,0,response1disk,3,94,-0.799988568,11.19999373,1,0,0,rectangle,-0.799988568,11.19999373,1,0,0,6,2,0,0.00045,-0.799988568,11.19999373,1,0,0,0,93,93,71,1,,,,,,,,,,,,,,,,,,,,,
,,,,,,,,,,,,,,,,,,,,,,,,,,,,,,,,,,,,,,,,,,,5f5146d7f21c6b36727ba867,5ff3a76ae766bba1e590e946,2021-01-04_15h40.42.400,Colour_Similarity_Experiment_v1,2020.1.2,Win32,60,5ff3a352adaa099f7659f8cc,,,,,,,,,,,,,,,,,,,,PF,,,,,,,,7,0.97226,,,,,,,,,,,,,,,,,,,,,,,,,,,,8,44.80001211,65.59999454,1,0,0,response1disk,1,95,5.600060356,15.19999379,1,0,0,rectangle,5.600060356,15.19999379,1,0,0,6,4,0,0.000455,5.600060356,15.19999379,1,0,0,0,94,94,57,1,,,,,,,,,,,,,,,,,,,,,
,,,,,,,,,,,,,,,,,,,,,,,,,,,,,,,,,,,,,,,,,,,5f5146d7f21c6b36727ba867,5ff3a76ae766bba1e590e946,2021-01-04_15h40.42.400,Colour_Similarity_Experiment_v1,2020.1.2,Win32,60,5ff3a352adaa099f7659f8cc,,,,,,,,,,,,,,,,,,,,PF,,,,,,,,4,2.041815,,,,,,,,,,,,,,,,,,,,,,,,,,,,7,48.00001216,-80.00000763,1,0,0,response3disk,6,96,-5.599988639,3.999993622,1,0,0,rectangle,-5.599988639,3.999993622,1,0,0,6,6,0,0.000435,-5.599988639,3.999993622,1,0,0,0,95,95,29,1,,,,,,,,,,,,,,,,,,,,,
,,,,,,,,,,,,,,,,,,,,,,,,,,,,,,,,,,,,,,,,,,,5f5146d7f21c6b36727ba867,5ff3a76ae766bba1e590e946,2021-01-04_15h40.42.400,Colour_Similarity_Experiment_v1,2020.1.2,Win32,60,5ff3a352adaa099f7659f8cc,,,,,,,,,,,,,,,,,,,,PF,,,,,,,,7,0.78137,,,,,,,,,,,,,,,,,,,,,,,,,,,,3,41.60006089,66.39999455,1,0,0,response1disk,1,97,-3.999988616,11.99999374,1,0,0,rectangle,-3.999988616,11.99999374,1,0,0,6,5,0,0.00047,-3.999988616,11.99999374,1,0,0,0,96,96,96,1,,,,,,,,,,,,,,,,,,,,,
,,,,,,,,,,,,,,,,,,,,,,,,,,,,,,,,,,,,,,,,,,,5f5146d7f21c6b36727ba867,5ff3a76ae766bba1e590e946,2021-01-04_15h40.42.400,Colour_Similarity_Experiment_v1,2020.1.2,Win32,60,5ff3a352adaa099f7659f8cc,,,,,,,,,,,,,,,,,,,,PF,,,,,,,,7,0.76828,,,,,,,,,,,,,,,,,,,,,,,,,,,,4,28.00001186,54.39999437,1,0,0,response1disk,1,98,-1.59998858,7.19999367,1,0,0,rectangle,-1.59998858,7.19999367,1,0,0,6,2,0,0.00054,-1.59998858,7.19999367,1,0,0,0,97,97,115,1,,,,,,,,,,,,,,,,,,,,,
,,,,,,,,,,,,,,,,,,,,,,,,,,,,,,,,,,,,,,,,,,,5f5146d7f21c6b36727ba867,5ff3a76ae766bba1e590e946,2021-01-04_15h40.42.400,Colour_Similarity_Experiment_v1,2020.1.2,Win32,60,5ff3a352adaa099f7659f8cc,,,,,,,,,,,,,,,,,,,,PF,,,,,,,,7,0.89506,,,,,,,,,,,,,,,,,,,,,,,,,,,,2,24.0000118,66.39999455,1,0,0,response1disk,5,99,5.600060356,-4.000006497,1,0,0,rectangle,5.600060356,-4.000006497,1,0,0,6,6,0,0.00043,5.600060356,-4.000006497,1,0,0,0,98,98,147,1,,,,,,,,,,,,,,,,,,,,,
,,,,,,,,,,,,,,,,,,,,,,,,,,,,,,,,,,,,,,,,,,,5f5146d7f21c6b36727ba867,5ff3a76ae766bba1e590e946,2021-01-04_15h40.42.400,Colour_Similarity_Experiment_v1,2020.1.2,Win32,60,5ff3a352adaa099f7659f8cc,,,,,,,,,,,,,,,,,,,,PF,,,,,,,,6,1.81211,,,,,,,,,,,,,,,,,,,,,,,,,,,,5,97.6000129,40.79999417,1,0,0,response1disk,7,100,2.40001148,-3.200006485,1,0,0,rectangle,2.40001148,-3.200006485,1,0,0,6,1,0,0.000445,2.40001148,-3.200006485,1,0,0,0,99,99,146,1,,,,,,,,,,,,,,,,,,,,,
,,,,,,,,,,,,,,,,,,,,,,,,,,,,,,,,,,,,,,,,,,,5f5146d7f21c6b36727ba867,5ff3a76ae766bba1e590e946,2021-01-04_15h40.42.400,Colour_Similarity_Experiment_v1,2020.1.2,Win32,60,5ff3a352adaa099f7659f8cc,,,,,,,,,,,,,,,,,,,,FF,,,,,,,,7,0.65289,,,,,,,,,,,,,,,,,,,,,,,,,,,,9,24.0000118,59.99999446,1,0,0,response1disk,3,101,3.200011492,7.19999367,1,0,0,rectangle,3.200011492,7.19999367,1,0,0,6,0,0,0.000555,3.200011492,7.19999367,1,0,0,0,100,100,141,1,,,,,,,,,,,,,,,,,,,,,
,,,,,,,,,,,,,,,,,,,,,,,,,,,,,,,,,,,,,,,,,,,5f5146d7f21c6b36727ba867,5ff3a76ae766bba1e590e946,2021-01-04_15h40.42.400,Colour_Similarity_Experiment_v1,2020.1.2,Win32,60,5ff3a352adaa099f7659f8cc,,,,,,,,,,,,,,,,,,,,FF,,,,,,,,7,0.720425,,,,,,,,,,,,,,,,,,,,,,,,,,,,3,29.60006071,63.19997009,1,0,0,response1disk,1,102,-15.99998879,2.399993598,1,0,0,rectangle,-15.99998879,2.399993598,1,0,0,6,4,0,0.000445,-15.99998879,2.399993598,1,0,0,0,101,101,125,1,,,,,,,,,,,,,,,,,,,,,
,,,,,,,,,,,,,,,,,,,,,,,,,,,,,,,,,,,,,,,,,,,5f5146d7f21c6b36727ba867,5ff3a76ae766bba1e590e946,2021-01-04_15h40.42.400,Colour_Similarity_Experiment_v1,2020.1.2,Win32,60,5ff3a352adaa099f7659f8cc,,,,,,,,,,,,,,,,,,,,PF,,,,,,,,7,0.88115,,,,,,,,,,,,,,,,,,,,,,,,,,,,5,41.60006089,69.5999946,1,0,0,response1disk,2,103,6.400011539,13.59999377,1,0,0,rectangle,6.400011539,13.59999377,1,0,0,6,6,0,0.000545,6.400011539,13.59999377,1,0,0,0,102,102,129,1,,,,,,,,,,,,,,,,,,,,,
,,,,,,,,,,,,,,,,,,,,,,,,,,,,,,,,,,,,,,,,,,,5f5146d7f21c6b36727ba867,5ff3a76ae766bba1e590e946,2021-01-04_15h40.42.400,Colour_Similarity_Experiment_v1,2020.1.2,Win32,60,5ff3a352adaa099f7659f8cc,,,,,,,,,,,,,,,,,,,,FF,,,,,,,,7,1.007395,,,,,,,,,,,,,,,,,,,,,,,,,,,,3,32.00001192,65.59999454,1,0,0,response1disk,9,104,-1.59998858,12.79999375,1,0,0,rectangle,-1.59998858,12.79999375,1,0,0,6,6,0,0.00047,-1.59998858,12.79999375,1,0,0,0,103,103,143,1,,,,,,,,,,,,,,,,,,,,,
,,,,,,,,,,,,,,,,,,,,,,,,,,,,,,,,,,,,,,,,,,,5f5146d7f21c6b36727ba867,5ff3a76ae766bba1e590e946,2021-01-04_15h40.42.400,Colour_Similarity_Experiment_v1,2020.1.2,Win32,60,5ff3a352adaa099f7659f8cc,,,,,,,,,,,,,,,,,,,,FF,,,,,,,,7,1.086865,,,,,,,,,,,,,,,,,,,,,,,,,,,,1,27.20001185,62.39999449,1,0,0,response1disk,5,105,-2.399939764,-1.600006461,1,0,0,rectangle,-2.399939764,-1.600006461,1,0,0,6,6,0,0.000465,-2.399939764,-1.600006461,1,0,0,0,104,104,82,1,,,,,,,,,,,,,,,,,,,,,
,,,,,,,,,,,,,,,,,,,,,,,,,,,,,,,,,,,,,,,,,,,5f5146d7f21c6b36727ba867,5ff3a76ae766bba1e590e946,2021-01-04_15h40.42.400,Colour_Similarity_Experiment_v1,2020.1.2,Win32,60,5ff3a352adaa099f7659f8cc,,,,,,,,,,,,,,,,,,,,PF,,,,,,,,7,0.867235,,,,,,,,,,,,,,,,,,,,,,,,,,,,6,30.4000119,53.59999436,1,0,0,response1disk,1,106,0.800011456,1.599993587,1,0,0,rectangle,0.800011456,1.599993587,1,0,0,6,2,0,0.000445,0.800011456,1.599993587,1,0,0,0,105,105,46,1,,,,,,,,,,,,,,,,,,,,,
,,,,,,,,,,,,,,,,,,,,,,,,,,,,,,,,,,,,,,,,,,,5f5146d7f21c6b36727ba867,5ff3a76ae766bba1e590e946,2021-01-04_15h40.42.400,Colour_Similarity_Experiment_v1,2020.1.2,Win32,60,5ff3a352adaa099f7659f8cc,,,,,,,,,,,,,,,,,,,,PF,,,,,,,,4,1.9039,,,,,,,,,,,,,,,,,,,,,,,,,,,,5,56.00001228,-75.20000756,1,0,0,response3disk,4,107,8.800011575,8.799993694,1,0,0,rectangle,8.800011575,8.799993694,1,0,0,6,2,0,0.000535,8.800011575,8.799993694,1,0,0,0,106,106,54,1,,,,,,,,,,,,,,,,,,,,,
,,,,,,,,,,,,,,,,,,,,,,,,,,,,,,,,,,,,,,,,,,,5f5146d7f21c6b36727ba867,5ff3a76ae766bba1e590e946,2021-01-04_15h40.42.400,Colour_Similarity_Experiment_v1,2020.1.2,Win32,60,5ff3a352adaa099f7659f8cc,,,,,,,,,,,,,,,,,,,,PF,,,,,,,,7,0.877205,,,,,,,,,,,,,,,,,,,,,,,,,,,,7,27.20001185,52.79999435,1,0,0,response1disk,9,108,-2.399939764,-3.200006485,1,0,0,rectangle,-2.399939764,-3.200006485,1,0,0,6,6,0,0.001285,-2.399939764,-3.200006485,1,0,0,0,107,107,10,1,,,,,,,,,,,,,,,,,,,,,
,,,,,,,,,,,,,,,,,,,,,,,,,,,,,,,,,,,,,,,,,,,5f5146d7f21c6b36727ba867,5ff3a76ae766bba1e590e946,2021-01-04_15h40.42.400,Colour_Similarity_Experiment_v1,2020.1.2,Win32,60,5ff3a352adaa099f7659f8cc,,,,,,,,,,,,,,,,,,,,PF,,,,,,,,4,1.59376,,,,,,,,,,,,,,,,,,,,,,,,,,,,4,51.20001221,-98.4000079,1,0,0,response3disk,5,109,20.80001175,1.599993587,1,0,0,rectangle,20.80001175,1.599993587,1,0,0,6,2,0,0.000445,20.80001175,1.599993587,1,0,0,0,108,108,49,1,,,,,,,,,,,,,,,,,,,,,
,,,,,,,,,,,,,,,,,,,,,,,,,,,,,,,,,,,,,,,,,,,5f5146d7f21c6b36727ba867,5ff3a76ae766bba1e590e946,2021-01-04_15h40.42.400,Colour_Similarity_Experiment_v1,2020.1.2,Win32,60,5ff3a352adaa099f7659f8cc,,,,,,,,,,,,,,,,,,,,FF,,,,,,,,7,0.778875,,,,,,,,,,,,,,,,,,,,,,,,,,,,9,25.60006065,46.39999425,1,0,0,response1disk,6,110,8.000011563,5.599993646,1,0,0,rectangle,8.000011563,5.599993646,1,0,0,6,5,0,0.00044,8.000011563,5.599993646,1,0,0,0,109,109,117,1,,,,,,,,,,,,,,,,,,,,,
,,,,,,,,,,,,,,,,,,,,,,,,,,,,,,,,,,,,,,,,,,,5f5146d7f21c6b36727ba867,5ff3a76ae766bba1e590e946,2021-01-04_15h40.42.400,Colour_Similarity_Experiment_v1,2020.1.2,Win32,60,5ff3a352adaa099f7659f8cc,,,,,,,,,,,,,,,,,,,,PF,,,,,,,,7,1.327925,,,,,,,,,,,,,,,,,,,,,,,,,,,,5,25.60006065,49.5999943,1,0,0,response1disk,6,111,1.14441E-05,-6.4373E-06,1,0,0,rectangle,1.14441E-05,-6.4373E-06,1,0,0,6,7,0,0.000435,1.14441E-05,-6.4373E-06,1,0,0,0,110,110,103,1,,,,,,,,,,,,,,,,,,,,,
,,,,,,,,,,,,,,,,,,,,,,,,,,,,,,,,,,,,,,,,,,,5f5146d7f21c6b36727ba867,5ff3a76ae766bba1e590e946,2021-01-04_15h40.42.400,Colour_Similarity_Experiment_v1,2020.1.2,Win32,60,5ff3a352adaa099f7659f8cc,,,,,,,,,,,,,,,,,,,,PF,,,,,,,,7,0.93525,,,,,,,,,,,,,,,,,,,,,,,,,,,,8,34.40001196,56.79999441,1,0,0,response1disk,4,112,4.800011516,5.599993646,1,0,0,rectangle,4.800011516,5.599993646,1,0,0,6,3,0,0.00044,4.800011516,5.599993646,1,0,0,0,111,111,78,1,,,,,,,,,,,,,,,,,,,,,
,,,,,,,,,,,,,,,,,,,,,,,,,,,,,,,,,,,,,,,,,,,5f5146d7f21c6b36727ba867,5ff3a76ae766bba1e590e946,2021-01-04_15h40.42.400,Colour_Similarity_Experiment_v1,2020.1.2,Win32,60,5ff3a352adaa099f7659f8cc,,,,,,,,,,,,,,,,,,,,PF,,,,,,,,7,0.862285,,,,,,,,,,,,,,,,,,,,,,,,,,,,7,33.60006077,51.99999434,1,0,0,response1disk,4,113,-16.79998881,-16.00000668,1,0,0,rectangle,-16.79998881,-16.00000668,1,0,0,6,5,0,0.000715,-16.79998881,-16.00000668,1,0,0,0,112,112,43,1,,,,,,,,,,,,,,,,,,,,,
,,,,,,,,,,,,,,,,,,,,,,,,,,,,,,,,,,,,,,,,,,,5f5146d7f21c6b36727ba867,5ff3a76ae766bba1e590e946,2021-01-04_15h40.42.400,Colour_Similarity_Experiment_v1,2020.1.2,Win32,60,5ff3a352adaa099f7659f8cc,,,,,,,,,,,,,,,,,,,,FF,,,,,,,,6,1.906095,,,,,,,,,,,,,,,,,,,,,,,,,,,,5,79.20001262,30.39999402,1,0,0,response1disk,7,114,21.60006059,6.399993658,1,0,0,rectangle,21.60006059,6.399993658,1,0,0,6,7,0,0.00048,21.60006059,6.399993658,1,0,0,0,113,113,7,1,,,,,,,,,,,,,,,,,,,,,
,,,,,,,,,,,,,,,,,,,,,,,,,,,,,,,,,,,,,,,,,,,5f5146d7f21c6b36727ba867,5ff3a76ae766bba1e590e946,2021-01-04_15h40.42.400,Colour_Similarity_Experiment_v1,2020.1.2,Win32,60,5ff3a352adaa099f7659f8cc,,,,,,,,,,,,,,,,,,,,FF,,,,,,,,7,0.90145,,,,,,,,,,,,,,,,,,,,,,,,,,,,3,27.20001185,52.79999435,1,0,0,response1disk,7,115,-6.399939823,7.19999367,1,0,0,rectangle,-6.399939823,7.19999367,1,0,0,6,7,0,0.000425,-6.399939823,7.19999367,1,0,0,0,114,114,118,1,,,,,,,,,,,,,,,,,,,,,
,,,,,,,,,,,,,,,,,,,,,,,,,,,,,,,,,,,,,,,,,,,5f5146d7f21c6b36727ba867,5ff3a76ae766bba1e590e946,2021-01-04_15h40.42.400,Colour_Similarity_Experiment_v1,2020.1.2,Win32,60,5ff3a352adaa099f7659f8cc,,,,,,,,,,,,,,,,,,,,FF,,,,,,,,0,0.94697,,,,,,,,,,,,,,,,,,,,,,,,,,,,8,-25.59998894,71.19997021,1,0,0,response7disk,8,116,-9.599988699,-3.200006485,1,0,0,rectangle,-9.599988699,-3.200006485,1,0,0,6,2,0,0.00048,-9.599988699,-3.200006485,1,0,0,0,115,115,48,1,,,,,,,,,,,,,,,,,,,,,
,,,,,,,,,,,,,,,,,,,,,,,,,,,,,,,,,,,,,,,,,,,5f5146d7f21c6b36727ba867,5ff3a76ae766bba1e590e946,2021-01-04_15h40.42.400,Colour_Similarity_Experiment_v1,2020.1.2,Win32,60,5ff3a352adaa099f7659f8cc,,,,,,,,,,,,,,,,,,,,PF,,,,,,,,0,0.96812,,,,,,,,,,,,,,,,,,,,,,,,,,,,1,-31.99998903,64.79999453,1,0,0,response7disk,1,117,10.4000116,-10.40000659,1,0,0,rectangle,-37.59998912,86.39999485,1,0,0,0,0,1,1.760795,0.800011456,1.599993587,1,0,0,0,116,116,76,1,response7disk_3,rectangle,,,,,,,,,,,,,,,,,,,
,,,,,,,,,,,,,,,,,,,,,,,,,,,,,,,,,,,,,,,,,,,5f5146d7f21c6b36727ba867,5ff3a76ae766bba1e590e946,2021-01-04_15h40.42.400,Colour_Similarity_Experiment_v1,2020.1.2,Win32,60,5ff3a352adaa099f7659f8cc,,,,,,,,,,,,,,,,,,,,FF,,,,,,,,7,1.609265,,,,,,,,,,,,,,,,,,,,,,,,,,,,6,23.20001179,98.39999503,1,0,0,response1disk,9,118,-0.799988568,0.799993575,1,0,0,rectangle,96.80001289,42.39999419,1,0,0,6,6,1,1.619715,12.00001162,1.599993587,1,0,0,0,117,117,160,1,response1disk_3,rectangle,,,,,,,,,,,,,,,,,,,
,,,,,,,,,,,,,,,,,,,,,,,,,,,,,,,,,,,,,,,,,,,5f5146d7f21c6b36727ba867,5ff3a76ae766bba1e590e946,2021-01-04_15h40.42.400,Colour_Similarity_Experiment_v1,2020.1.2,Win32,60,5ff3a352adaa099f7659f8cc,,,,,,,,,,,,,,,,,,,,PF,,,,,,,,0,0.858415,,,,,,,,,,,,,,,,,,,,,,,,,,,,2,-32.79998904,80.79999477,1,0,0,response7disk,2,119,-3.999988616,-3.200006485,1,0,0,rectangle,-3.999988616,-3.200006485,1,0,0,6,3,0,0.00046,-3.999988616,-3.200006485,1,0,0,0,118,118,14,1,,,,,,,,,,,,,,,,,,,,,
,,,,,,,,,,,,,,,,,,,,,,,,,,,,,,,,,,,,,,,,,,,5f5146d7f21c6b36727ba867,5ff3a76ae766bba1e590e946,2021-01-04_15h40.42.400,Colour_Similarity_Experiment_v1,2020.1.2,Win32,60,5ff3a352adaa099f7659f8cc,,,,,,,,,,,,,,,,,,,,FF,,,,,,,,0,1.01053,,,,,,,,,,,,,,,,,,,,,,,,,,,,6,-27.19998896,78.39999473,1,0,0,response7disk,4,120,-1.59998858,-6.400006533,1,0,0,rectangle,-1.59998858,-6.400006533,1,0,0,6,0,0,0.00047,-1.59998858,-6.400006533,1,0,0,0,119,119,56,1,,,,,,,,,,,,,,,,,,,,,
,,,,,,,,,,,,,,,,,,,,,,,,,,,,,,,,,,,,,,,,,,,5f5146d7f21c6b36727ba867,5ff3a76ae766bba1e590e946,2021-01-04_15h40.42.400,Colour_Similarity_Experiment_v1,2020.1.2,Win32,60,5ff3a352adaa099f7659f8cc,,,,,,,,,,,,,,,,,,,,PF,,,,,,,,6,1.784115,,,,,,,,,,,,,,,,,,,,,,,,,,,,9,72.80001253,33.59999406,1,0,0,response1disk,1,121,1.600060296,6.399993658,1,0,0,rectangle,1.600060296,6.399993658,1,0,0,6,5,0,0.00056,1.600060296,6.399993658,1,0,0,0,120,120,74,1,,,,,,,,,,,,,,,,,,,,,
,,,,,,,,,,,,,,,,,,,,,,,,,,,,,,,,,,,,,,,,,,,5f5146d7f21c6b36727ba867,5ff3a76ae766bba1e590e946,2021-01-04_15h40.42.400,Colour_Similarity_Experiment_v1,2020.1.2,Win32,60,5ff3a352adaa099f7659f8cc,,,,,,,,,,,,,,,,,,,,FF,,,,,,,,7,0.912035,,,,,,,,,,,,,,,,,,,,,,,,,,,,1,17.60006053,59.19997003,1,0,0,response1disk,3,122,10.4000116,5.599993646,1,0,0,rectangle,10.4000116,5.599993646,1,0,0,6,5,0,0.00046,10.4000116,5.599993646,1,0,0,0,121,121,99,1,,,,,,,,,,,,,,,,,,,,,
,,,,,,,,,,,,,,,,,,,,,,,,,,,,,,,,,,,,,,,,,,,5f5146d7f21c6b36727ba867,5ff3a76ae766bba1e590e946,2021-01-04_15h40.42.400,Colour_Similarity_Experiment_v1,2020.1.2,Win32,60,5ff3a352adaa099f7659f8cc,,,,,,,,,,,,,,,,,,,,FF,,,,,,,,7,0.796545,,,,,,,,,,,,,,,,,,,,,,,,,,,,4,28.80001187,55.9999944,1,0,0,response1disk,7,123,5.600060356,0.799993575,1,0,0,rectangle,5.600060356,0.799993575,1,0,0,6,6,0,0.000455,5.600060356,0.799993575,1,0,0,0,122,122,87,1,,,,,,,,,,,,,,,,,,,,,
,,,,,,,,,,,,,,,,,,,,,,,,,,,,,,,,,,,,,,,,,,,5f5146d7f21c6b36727ba867,5ff3a76ae766bba1e590e946,2021-01-04_15h40.42.400,Colour_Similarity_Experiment_v1,2020.1.2,Win32,60,5ff3a352adaa099f7659f8cc,,,,,,,,,,,,,,,,,,,,PF,,,,,,,,7,0.892805,,,,,,,,,,,,,,,,,,,,,,,,,,,,4,24.80001181,55.9999944,1,0,0,response1disk,9,124,12.00001162,-6.4373E-06,1,0,0,rectangle,12.00001162,-6.4373E-06,1,0,0,6,5,0,0.000435,12.00001162,-6.4373E-06,1,0,0,0,123,123,75,1,,,,,,,,,,,,,,,,,,,,,
,,,,,,,,,,,,,,,,,,,,,,,,,,,,,,,,,,,,,,,,,,,5f5146d7f21c6b36727ba867,5ff3a76ae766bba1e590e946,2021-01-04_15h40.42.400,Colour_Similarity_Experiment_v1,2020.1.2,Win32,60,5ff3a352adaa099f7659f8cc,,,,,,,,,,,,,,,,,,,,PF,,,,,,,,0,0.94824,,,,,,,,,,,,,,,,,,,,,,,,,,,,8,-28.79998899,74.39999467,1,0,0,response7disk,8,125,-3.999988616,4.799993634,1,0,0,rectangle,-3.999988616,4.799993634,1,0,0,6,0,0,0.0005,-3.999988616,4.799993634,1,0,0,0,124,124,153,1,,,,,,,,,,,,,,,,,,,,,
,,,,,,,,,,,,,,,,,,,,,,,,,,,,,,,,,,,,,,,,,,,5f5146d7f21c6b36727ba867,5ff3a76ae766bba1e590e946,2021-01-04_15h40.42.400,Colour_Similarity_Experiment_v1,2020.1.2,Win32,60,5ff3a352adaa099f7659f8cc,,,,,,,,,,,,,,,,,,,,FF,,,,,,,,0,1.117615,,,,,,,,,,,,,,,,,,,,,,,,,,,,9,-33.59998906,71.19997021,1,0,0,response7disk,9,126,-7.199988663,-0.800006449,1,0,0,rectangle,-7.199988663,-0.800006449,1,0,0,6,7,0,0.00044,-7.199988663,-0.800006449,1,0,0,0,125,125,17,1,,,,,,,,,,,,,,,,,,,,,
,,,,,,,,,,,,,,,,,,,,,,,,,,,,,,,,,,,,,,,,,,,5f5146d7f21c6b36727ba867,5ff3a76ae766bba1e590e946,2021-01-04_15h40.42.400,Colour_Similarity_Experiment_v1,2020.1.2,Win32,60,5ff3a352adaa099f7659f8cc,,,,,,,,,,,,,,,,,,,,FF,,,,,,,,7,0.76217,,,,,,,,,,,,,,,,,,,,,,,,,,,,1,49.60006101,78.39999473,1,0,0,response1disk,7,127,19.20001173,-4.000006497,1,0,0,rectangle,19.20001173,-4.000006497,1,0,0,6,0,0,0.000435,19.20001173,-4.000006497,1,0,0,0,126,126,137,1,,,,,,,,,,,,,,,,,,,,,
,,,,,,,,,,,,,,,,,,,,,,,,,,,,,,,,,,,,,,,,,,,5f5146d7f21c6b36727ba867,5ff3a76ae766bba1e590e946,2021-01-04_15h40.42.400,Colour_Similarity_Experiment_v1,2020.1.2,Win32,60,5ff3a352adaa099f7659f8cc,,,,,,,,,,,,,,,,,,,,PF,,,,,,,,4,2.48159,,,,,,,,,,,,,,,,,,,,,,,,,,,,3,76.00001258,-99.20000792,1,0,0,response3disk,2,128,8.000011563,2.399993598,1,0,0,rectangle,-38.3999403,94.39999497,1,0,0,0,0,1,1.83187,1.600060296,4.799993634,1,0,0,0,127,127,36,1,response7disk_3,rectangle,,,,,,,,,,,,,,,,,,,
,,,,,,,,,,,,,,,,,,,,,,,,,,,,,,,,,,,,,,,,,,,5f5146d7f21c6b36727ba867,5ff3a76ae766bba1e590e946,2021-01-04_15h40.42.400,Colour_Similarity_Experiment_v1,2020.1.2,Win32,60,5ff3a352adaa099f7659f8cc,,,,,,,,,,,,,,,,,,,,PF,,,,,,,,5,1.91435,,,,,,,,,,,,,,,,,,,,,,,,,,,,2,86.40001273,-45.60000712,1,0,0,response3disk,1,129,16.80001169,-8.000006557,1,0,0,rectangle,16.80001169,-8.000006557,1,0,0,0,1,0,0.000615,16.80001169,-8.000006557,1,0,0,0,128,128,9,1,,,,,,,,,,,,,,,,,,,,,
,,,,,,,,,,,,,,,,,,,,,,,,,,,,,,,,,,,,,,,,,,,5f5146d7f21c6b36727ba867,5ff3a76ae766bba1e590e946,2021-01-04_15h40.42.400,Colour_Similarity_Experiment_v1,2020.1.2,Win32,60,5ff3a352adaa099f7659f8cc,,,,,,,,,,,,,,,,,,,,FF,,,,,,,,0,0.939885,,,,,,,,,,,,,,,,,,,,,,,,,,,,4,-20.79998887,75.9999947,1,0,0,response7disk,4,130,-14.39993994,7.999993682,1,0,0,rectangle,-14.39993994,7.999993682,1,0,0,0,6,0,0.00043,-14.39993994,7.999993682,1,0,0,0,129,129,84,1,,,,,,,,,,,,,,,,,,,,,
,,,,,,,,,,,,,,,,,,,,,,,,,,,,,,,,,,,,,,,,,,,5f5146d7f21c6b36727ba867,5ff3a76ae766bba1e590e946,2021-01-04_15h40.42.400,Colour_Similarity_Experiment_v1,2020.1.2,Win32,60,5ff3a352adaa099f7659f8cc,,,,,,,,,,,,,,,,,,,,FF,,,,,,,,7,0.895735,,,,,,,,,,,,,,,,,,,,,,,,,,,,9,41.60006089,59.99999446,1,0,0,response1disk,7,131,1.14441E-05,-8.800006568,1,0,0,rectangle,1.14441E-05,-8.800006568,1,0,0,0,3,0,0.00044,1.14441E-05,-8.800006568,1,0,0,0,130,130,100,1,,,,,,,,,,,,,,,,,,,,,
,,,,,,,,,,,,,,,,,,,,,,,,,,,,,,,,,,,,,,,,,,,5f5146d7f21c6b36727ba867,5ff3a76ae766bba1e590e946,2021-01-04_15h40.42.400,Colour_Similarity_Experiment_v1,2020.1.2,Win32,60,5ff3a352adaa099f7659f8cc,,,,,,,,,,,,,,,,,,,,FF,,,,,,,,7,1.37476,,,,,,,,,,,,,,,,,,,,,,,,,,,,9,32.80001193,47.19996985,1,0,0,response1disk,8,132,5.600060356,7.19999367,1,0,0,rectangle,5.600060356,7.19999367,1,0,0,0,7,0,0.00049,5.600060356,7.19999367,1,0,0,0,131,131,6,1,,,,,,,,,,,,,,,,,,,,,
,,,,,,,,,,,,,,,,,,,,,,,,,,,,,,,,,,,,,,,,,,,5f5146d7f21c6b36727ba867,5ff3a76ae766bba1e590e946,2021-01-04_15h40.42.400,Colour_Similarity_Experiment_v1,2020.1.2,Win32,60,5ff3a352adaa099f7659f8cc,,,,,,,,,,,,,,,,,,,,PF,,,,,,,,6,1.69598,,,,,,,,,,,,,,,,,,,,,,,,,,,,1,72.00001252,30.39999402,1,0,0,response1disk,9,133,16.00001168,-4.000006497,1,0,0,rectangle,16.00001168,-4.000006497,1,0,0,0,7,0,0.000455,16.00001168,-4.000006497,1,0,0,0,132,132,15,1,,,,,,,,,,,,,,,,,,,,,
,,,,,,,,,,,,,,,,,,,,,,,,,,,,,,,,,,,,,,,,,,,5f5146d7f21c6b36727ba867,5ff3a76ae766bba1e590e946,2021-01-04_15h40.42.400,Colour_Similarity_Experiment_v1,2020.1.2,Win32,60,5ff3a352adaa099f7659f8cc,,,,,,,,,,,,,,,,,,,,PF,,,,,,,,7,1.584755,,,,,,,,,,,,,,,,,,,,,,,,,,,,8,28.80001187,57.59999442,1,0,0,response1disk,9,134,8.000011563,11.19999373,1,0,0,rectangle,8.000011563,11.19999373,1,0,0,0,4,0,0.00046,8.000011563,11.19999373,1,0,0,0,133,133,42,1,,,,,,,,,,,,,,,,,,,,,
,,,,,,,,,,,,,,,,,,,,,,,,,,,,,,,,,,,,,,,,,,,5f5146d7f21c6b36727ba867,5ff3a76ae766bba1e590e946,2021-01-04_15h40.42.400,Colour_Similarity_Experiment_v1,2020.1.2,Win32,60,5ff3a352adaa099f7659f8cc,,,,,,,,,,,,,,,,,,,,PF,,,,,,,,7,0.988545,,,,,,,,,,,,,,,,,,,,,,,,,,,,6,33.60006077,68.79999459,1,0,0,response1disk,9,135,-10.39993988,-6.4373E-06,1,0,0,rectangle,-10.39993988,-6.4373E-06,1,0,0,0,1,0,0.000455,-10.39993988,-6.4373E-06,1,0,0,0,134,134,45,1,,,,,,,,,,,,,,,,,,,,,
,,,,,,,,,,,,,,,,,,,,,,,,,,,,,,,,,,,,,,,,,,,5f5146d7f21c6b36727ba867,5ff3a76ae766bba1e590e946,2021-01-04_15h40.42.400,Colour_Similarity_Experiment_v1,2020.1.2,Win32,60,5ff3a352adaa099f7659f8cc,,,,,,,,,,,,,,,,,,,,PF,,,,,,,,7,0.941495,,,,,,,,,,,,,,,,,,,,,,,,,,,,7,25.60006065,50.39999431,1,0,0,response1disk,1,136,12.80001163,6.399993658,1,0,0,rectangle,12.80001163,6.399993658,1,0,0,0,6,0,0.000465,12.80001163,6.399993658,1,0,0,0,135,135,53,1,,,,,,,,,,,,,,,,,,,,,
,,,,,,,,,,,,,,,,,,,,,,,,,,,,,,,,,,,,,,,,,,,5f5146d7f21c6b36727ba867,5ff3a76ae766bba1e590e946,2021-01-04_15h40.42.400,Colour_Similarity_Experiment_v1,2020.1.2,Win32,60,5ff3a352adaa099f7659f8cc,,,,,,,,,,,,,,,,,,,,FF,,,,,,,,6,2.27821,,,,,,,,,,,,,,,,,,,,,,,,,,,,7,72.00001252,47.19996985,1,0,0,response1disk,8,137,0.800011456,15.19999379,1,0,0,rectangle,-46.39994042,-96.00000787,1,0,0,3,3,1,2.185855,-7.999988675,0.799993575,1,0,0,0,136,136,97,1,response5disk_3,rectangle,,,,,,,,,,,,,,,,,,,
,,,,,,,,,,,,,,,,,,,,,,,,,,,,,,,,,,,,,,,,,,,5f5146d7f21c6b36727ba867,5ff3a76ae766bba1e590e946,2021-01-04_15h40.42.400,Colour_Similarity_Experiment_v1,2020.1.2,Win32,60,5ff3a352adaa099f7659f8cc,,,,,,,,,,,,,,,,,,,,FF,,,,,,,,0,1.02107,,,,,,,,,,,,,,,,,,,,,,,,,,,,7,-33.59998906,85.59999484,1,0,0,response7disk,7,138,0.800011456,1.599993587,1,0,0,rectangle,0.800011456,1.599993587,1,0,0,3,5,0,0.000495,0.800011456,1.599993587,1,0,0,0,137,137,34,1,,,,,,,,,,,,,,,,,,,,,
,,,,,,,,,,,,,,,,,,,,,,,,,,,,,,,,,,,,,,,,,,,5f5146d7f21c6b36727ba867,5ff3a76ae766bba1e590e946,2021-01-04_15h40.42.400,Colour_Similarity_Experiment_v1,2020.1.2,Win32,60,5ff3a352adaa099f7659f8cc,,,,,,,,,,,,,,,,,,,,PF,,,,,,,,0,0.75867,,,,,,,,,,,,,,,,,,,,,,,,,,,,4,-31.19998902,87.99999487,1,0,0,response7disk,4,139,-1.59998858,-6.4373E-06,1,0,0,rectangle,-1.59998858,-6.4373E-06,1,0,0,3,6,0,0.00054,-1.59998858,-6.4373E-06,1,0,0,0,138,138,70,1,,,,,,,,,,,,,,,,,,,,,
,,,,,,,,,,,,,,,,,,,,,,,,,,,,,,,,,,,,,,,,,,,5f5146d7f21c6b36727ba867,5ff3a76ae766bba1e590e946,2021-01-04_15h40.42.400,Colour_Similarity_Experiment_v1,2020.1.2,Win32,60,5ff3a352adaa099f7659f8cc,,,,,,,,,,,,,,,,,,,,PF,,,,,,,,7,0.87234,,,,,,,,,,,,,,,,,,,,,,,,,,,,7,39.20001203,67.99999458,1,0,0,response1disk,2,140,0.800011456,3.19999361,1,0,0,rectangle,0.800011456,3.19999361,1,0,0,3,2,0,0.0005,0.800011456,3.19999361,1,0,0,0,139,139,32,1,,,,,,,,,,,,,,,,,,,,,
,,,,,,,,,,,,,,,,,,,,,,,,,,,,,,,,,,,,,,,,,,,5f5146d7f21c6b36727ba867,5ff3a76ae766bba1e590e946,2021-01-04_15h40.42.400,Colour_Similarity_Experiment_v1,2020.1.2,Win32,60,5ff3a352adaa099f7659f8cc,,,,,,,,,,,,,,,,,,,,FF,,,,,,,,7,1.681005,,,,,,,,,,,,,,,,,,,,,,,,,,,,9,24.0000118,61.59999448,1,0,0,response1disk,4,141,-3.999988616,3.999993622,1,0,0,rectangle,-3.999988616,3.999993622,1,0,0,3,4,0,0.000485,-3.999988616,3.999993622,1,0,0,0,140,140,60,1,,,,,,,,,,,,,,,,,,,,,
,,,,,,,,,,,,,,,,,,,,,,,,,,,,,,,,,,,,,,,,,,,5f5146d7f21c6b36727ba867,5ff3a76ae766bba1e590e946,2021-01-04_15h40.42.400,Colour_Similarity_Experiment_v1,2020.1.2,Win32,60,5ff3a352adaa099f7659f8cc,,,,,,,,,,,,,,,,,,,,PF,,,,,,,,7,0.84647,,,,,,,,,,,,,,,,,,,,,,,,,,,,8,31.20001191,62.39999449,1,0,0,response1disk,5,142,7.200011551,5.599993646,1,0,0,rectangle,7.200011551,5.599993646,1,0,0,3,6,0,0.000485,7.200011551,5.599993646,1,0,0,0,141,141,98,1,,,,,,,,,,,,,,,,,,,,,
,,,,,,,,,,,,,,,,,,,,,,,,,,,,,,,,,,,,,,,,,,,5f5146d7f21c6b36727ba867,5ff3a76ae766bba1e590e946,2021-01-04_15h40.42.400,Colour_Similarity_Experiment_v1,2020.1.2,Win32,60,5ff3a352adaa099f7659f8cc,,,,,,,,,,,,,,,,,,,,FF,,,,,,,,6,0.996535,,,,,,,,,,,,,,,,,,,,,,,,,,,,8,76.00001258,31.99999404,1,0,0,response1disk,9,143,8.000011563,0.799993575,1,0,0,rectangle,8.000011563,0.799993575,1,0,0,3,7,0,0.00055,8.000011563,0.799993575,1,0,0,0,142,142,105,1,,,,,,,,,,,,,,,,,,,,,
,,,,,,,,,,,,,,,,,,,,,,,,,,,,,,,,,,,,,,,,,,,5f5146d7f21c6b36727ba867,5ff3a76ae766bba1e590e946,2021-01-04_15h40.42.400,Colour_Similarity_Experiment_v1,2020.1.2,Win32,60,5ff3a352adaa099f7659f8cc,,,,,,,,,,,,,,,,,,,,FF,,,,,,,,7,0.90406,,,,,,,,,,,,,,,,,,,,,,,,,,,,8,40.00001204,86.39999485,1,0,0,response1disk,5,144,-5.599988639,12.79999375,1,0,0,rectangle,-5.599988639,12.79999375,1,0,0,3,0,0,0.0005,-5.599988639,12.79999375,1,0,0,0,143,143,152,1,,,,,,,,,,,,,,,,,,,,,
,,,,,,,,,,,,,,,,,,,,,,,,,,,,,,,,,,,,,,,,,,,5f5146d7f21c6b36727ba867,5ff3a76ae766bba1e590e946,2021-01-04_15h40.42.400,Colour_Similarity_Experiment_v1,2020.1.2,Win32,60,5ff3a352adaa099f7659f8cc,,,,,,,,,,,,,,,,,,,,FF,,,,,,,,3,1.5004,,,,,,,,,,,,,,,,,,,,,,,,,,,,2,-55.19998938,-84.00000769,1,0,0,response5disk,3,145,-6.399939823,-8.000006557,1,0,0,rectangle,-107.1999902,-48.80000716,1,0,0,3,2,1,1.7978,-9.599988699,-1.600006461,1,0,0,0,144,144,104,1,response5disk_3,rectangle,,,,,,,,,,,,,,,,,,,
,,,,,,,,,,,,,,,,,,,,,,,,,,,,,,,,,,,,,,,,,,,5f5146d7f21c6b36727ba867,5ff3a76ae766bba1e590e946,2021-01-04_15h40.42.400,Colour_Similarity_Experiment_v1,2020.1.2,Win32,60,5ff3a352adaa099f7659f8cc,,,,,,,,,,,,,,,,,,,,PF,,,,,,,,7,0.99146,,,,,,,,,,,,,,,,,,,,,,,,,,,,5,31.20001191,65.59999454,1,0,0,response1disk,8,146,-5.599988639,4.799993634,1,0,0,rectangle,-5.599988639,4.799993634,1,0,0,3,7,0,0.000475,-5.599988639,4.799993634,1,0,0,0,145,145,149,1,,,,,,,,,,,,,,,,,,,,,
,,,,,,,,,,,,,,,,,,,,,,,,,,,,,,,,,,,,,,,,,,,5f5146d7f21c6b36727ba867,5ff3a76ae766bba1e590e946,2021-01-04_15h40.42.400,Colour_Similarity_Experiment_v1,2020.1.2,Win32,60,5ff3a352adaa099f7659f8cc,,,,,,,,,,,,,,,,,,,,FF,,,,,,,,7,0.65081,,,,,,,,,,,,,,,,,,,,,,,,,,,,5,26.40001184,62.39999449,1,0,0,response1disk,8,147,-2.399939764,-2.400006473,1,0,0,rectangle,-2.399939764,-2.400006473,1,0,0,3,5,0,0.00059,-2.399939764,-2.400006473,1,0,0,0,146,146,16,1,,,,,,,,,,,,,,,,,,,,,
,,,,,,,,,,,,,,,,,,,,,,,,,,,,,,,,,,,,,,,,,,,5f5146d7f21c6b36727ba867,5ff3a76ae766bba1e590e946,2021-01-04_15h40.42.400,Colour_Similarity_Experiment_v1,2020.1.2,Win32,60,5ff3a352adaa099f7659f8cc,,,,,,,,,,,,,,,,,,,,PF,,,,,,,,7,0.76143,,,,,,,,,,,,,,,,,,,,,,,,,,,,3,33.60006077,71.19997021,1,0,0,response1disk,7,148,9.600060415,11.19999373,1,0,0,rectangle,9.600060415,11.19999373,1,0,0,3,5,0,0.00046,9.600060415,11.19999373,1,0,0,0,147,147,41,1,,,,,,,,,,,,,,,,,,,,,
,,,,,,,,,,,,,,,,,,,,,,,,,,,,,,,,,,,,,,,,,,,5f5146d7f21c6b36727ba867,5ff3a76ae766bba1e590e946,2021-01-04_15h40.42.400,Colour_Similarity_Experiment_v1,2020.1.2,Win32,60,5ff3a352adaa099f7659f8cc,,,,,,,,,,,,,,,,,,,,FF,,,,,,,,7,0.776125,,,,,,,,,,,,,,,,,,,,,,,,,,,,4,25.60006065,55.19996997,1,0,0,response1disk,8,149,15.20001167,4.799993634,1,0,0,rectangle,15.20001167,4.799993634,1,0,0,3,1,0,0.000535,15.20001167,4.799993634,1,0,0,0,148,148,35,1,,,,,,,,,,,,,,,,,,,,,
,,,,,,,,,,,,,,,,,,,,,,,,,,,,,,,,,,,,,,,,,,,5f5146d7f21c6b36727ba867,5ff3a76ae766bba1e590e946,2021-01-04_15h40.42.400,Colour_Similarity_Experiment_v1,2020.1.2,Win32,60,5ff3a352adaa099f7659f8cc,,,,,,,,,,,,,,,,,,,,PF,,,,,,,,0,0.79417,,,,,,,,,,,,,,,,,,,,,,,,,,,,6,-24.79998893,71.19997021,1,0,0,response7disk,6,150,-10.39993988,4.799993634,1,0,0,rectangle,-10.39993988,4.799993634,1,0,0,3,3,0,0.00049,-10.39993988,4.799993634,1,0,0,0,149,149,0,1,,,,,,,,,,,,,,,,,,,,,
,,,,,,,,,,,,,,,,,,,,,,,,,,,,,,,,,,,,,,,,,,,5f5146d7f21c6b36727ba867,5ff3a76ae766bba1e590e946,2021-01-04_15h40.42.400,Colour_Similarity_Experiment_v1,2020.1.2,Win32,60,5ff3a352adaa099f7659f8cc,,,,,,,,,,,,,,,,,,,,FF,,,,,,,,7,0.780745,,,,,,,,,,,,,,,,,,,,,,,,,,,,5,26.40001184,61.59999448,1,0,0,response1disk,9,151,5.600060356,6.399993658,1,0,0,rectangle,5.600060356,6.399993658,1,0,0,3,5,0,0.000435,5.600060356,6.399993658,1,0,0,0,150,150,61,1,,,,,,,,,,,,,,,,,,,,,
,,,,,,,,,,,,,,,,,,,,,,,,,,,,,,,,,,,,,,,,,,,5f5146d7f21c6b36727ba867,5ff3a76ae766bba1e590e946,2021-01-04_15h40.42.400,Colour_Similarity_Experiment_v1,2020.1.2,Win32,60,5ff3a352adaa099f7659f8cc,,,,,,,,,,,,,,,,,,,,PF,,,,,,,,7,0.83156,,,,,,,,,,,,,,,,,,,,,,,,,,,,2,25.60006065,73.59999466,1,0,0,response1disk,7,152,1.14441E-05,-0.800006449,1,0,0,rectangle,1.14441E-05,-0.800006449,1,0,0,3,7,0,0.00049,1.14441E-05,-0.800006449,1,0,0,0,151,151,107,1,,,,,,,,,,,,,,,,,,,,,
,,,,,,,,,,,,,,,,,,,,,,,,,,,,,,,,,,,,,,,,,,,5f5146d7f21c6b36727ba867,5ff3a76ae766bba1e590e946,2021-01-04_15h40.42.400,Colour_Similarity_Experiment_v1,2020.1.2,Win32,60,5ff3a352adaa099f7659f8cc,,,,,,,,,,,,,,,,,,,,FF,,,,,,,,4,1.55008,,,,,,,,,,,,,,,,,,,,,,,,,,,,5,33.60006077,-80.00000763,1,0,0,response3disk,4,153,12.80001163,-6.400006533,1,0,0,rectangle,12.80001163,-6.400006533,1,0,0,3,1,0,0.001455,12.80001163,-6.400006533,1,0,0,0,152,152,8,1,,,,,,,,,,,,,,,,,,,,,
,,,,,,,,,,,,,,,,,,,,,,,,,,,,,,,,,,,,,,,,,,,5f5146d7f21c6b36727ba867,5ff3a76ae766bba1e590e946,2021-01-04_15h40.42.400,Colour_Similarity_Experiment_v1,2020.1.2,Win32,60,5ff3a352adaa099f7659f8cc,,,,,,,,,,,,,,,,,,,,PF,,,,,,,,7,0.76732,,,,,,,,,,,,,,,,,,,,,,,,,,,,1,35.20001197,60.79999447,1,0,0,response1disk,8,154,-3.199988604,-0.800006449,1,0,0,rectangle,-3.199988604,-0.800006449,1,0,0,3,1,0,0.002835,-3.199988604,-0.800006449,1,0,0,0,153,153,65,1,,,,,,,,,,,,,,,,,,,,,
,,,,,,,,,,,,,,,,,,,,,,,,,,,,,,,,,,,,,,,,,,,5f5146d7f21c6b36727ba867,5ff3a76ae766bba1e590e946,2021-01-04_15h40.42.400,Colour_Similarity_Experiment_v1,2020.1.2,Win32,60,5ff3a352adaa099f7659f8cc,,,,,,,,,,,,,,,,,,,,PF,,,,,,,,7,0.686275,,,,,,,,,,,,,,,,,,,,,,,,,,,,9,32.00001192,52.79999435,1,0,0,response1disk,3,155,-2.399939764,7.999993682,1,0,0,rectangle,-2.399939764,7.999993682,1,0,0,3,3,0,0.000935,-2.399939764,7.999993682,1,0,0,0,154,154,119,1,,,,,,,,,,,,,,,,,,,,,
,,,,,,,,,,,,,,,,,,,,,,,,,,,,,,,,,,,,,,,,,,,5f5146d7f21c6b36727ba867,5ff3a76ae766bba1e590e946,2021-01-04_15h40.42.400,Colour_Similarity_Experiment_v1,2020.1.2,Win32,60,5ff3a352adaa099f7659f8cc,,,,,,,,,,,,,,,,,,,,PF,,,,,,,,7,0.784195,,,,,,,,,,,,,,,,,,,,,,,,,,,,9,40.00001204,63.19997009,1,0,0,response1disk,5,156,20.00001174,7.19999367,1,0,0,rectangle,20.00001174,7.19999367,1,0,0,3,1,0,0.001545,20.00001174,7.19999367,1,0,0,0,155,155,134,1,,,,,,,,,,,,,,,,,,,,,
,,,,,,,,,,,,,,,,,,,,,,,,,,,,,,,,,,,,,,,,,,,5f5146d7f21c6b36727ba867,5ff3a76ae766bba1e590e946,2021-01-04_15h40.42.400,Colour_Similarity_Experiment_v1,2020.1.2,Win32,60,5ff3a352adaa099f7659f8cc,,,,,,,,,,,,,,,,,,,,FF,,,,,,,,7,0.684905,,,,,,,,,,,,,,,,,,,,,,,,,,,,8,20.00001174,70.39999461,1,0,0,response1disk,2,157,14.40001166,12.79999375,1,0,0,rectangle,14.40001166,12.79999375,1,0,0,3,2,0,0.00043,14.40001166,12.79999375,1,0,0,0,156,156,22,1,,,,,,,,,,,,,,,,,,,,,
,,,,,,,,,,,,,,,,,,,,,,,,,,,,,,,,,,,,,,,,,,,5f5146d7f21c6b36727ba867,5ff3a76ae766bba1e590e946,2021-01-04_15h40.42.400,Colour_Similarity_Experiment_v1,2020.1.2,Win32,60,5ff3a352adaa099f7659f8cc,,,,,,,,,,,,,,,,,,,,FF,,,,,,,,3,1.96724,,,,,,,,,,,,,,,,,,,,,,,,,,,,5,-51.99998933,-96.00000787,1,0,0,response5disk,3,158,-2.399939764,-4.800006509,1,0,0,rectangle,-2.399939764,-4.800006509,1,0,0,3,1,0,0.00044,-2.399939764,-4.800006509,1,0,0,0,157,157,25,1,,,,,,,,,,,,,,,,,,,,,
,,,,,,,,,,,,,,,,,,,,,,,,,,,,,,,,,,,,,,,,,,,5f5146d7f21c6b36727ba867,5ff3a76ae766bba1e590e946,2021-01-04_15h40.42.400,Colour_Similarity_Experiment_v1,2020.1.2,Win32,60,5ff3a352adaa099f7659f8cc,,,,,,,,,,,,,,,,,,,,PF,,,,,,,,7,0.815515,,,,,,,,,,,,,,,,,,,,,,,,,,,,4,30.4000119,69.5999946,1,0,0,response1disk,7,159,-3.199988604,2.399993598,1,0,0,rectangle,-3.199988604,2.399993598,1,0,0,3,4,0,0.0012,-3.199988604,2.399993598,1,0,0,0,158,158,38,1,,,,,,,,,,,,,,,,,,,,,
,,,,,,,,,,,,,,,,,,,,,,,,,,,,,,,,,,,,,,,,,,,5f5146d7f21c6b36727ba867,5ff3a76ae766bba1e590e946,2021-01-04_15h40.42.400,Colour_Similarity_Experiment_v1,2020.1.2,Win32,60,5ff3a352adaa099f7659f8cc,,,,,,,,,,,,,,,,,,,,FF,,,,,,,,7,0.55039,,,,,,,,,,,,,,,,,,,,,,,,,,,,7,24.80001181,58.39999443,1,0,0,response1disk,4,160,0.800011456,-11.2000066,1,0,0,rectangle,0.800011456,-11.2000066,1,0,0,3,0,0,0.00052,0.800011456,-11.2000066,1,0,0,0,159,159,158,1,,,,,,,,,,,,,,,,,,,,,
,,,,,,,,,,,,,,,,,,,,,,,,,,,,,,,,,,,,,,,,,,,5f5146d7f21c6b36727ba867,5ff3a76ae766bba1e590e946,2021-01-04_15h40.42.400,Colour_Similarity_Experiment_v1,2020.1.2,Win32,60,5ff3a352adaa099f7659f8cc,,,,,,,,,,,,,,,,,,,,FF,,,,,,,,7,0.63401,,,,,,,,,,,,,,,,,,,,,,,,,,,,6,27.20001185,60.79999447,1,0,0,response1disk,2,161,10.4000116,9.599993706,1,0,0,rectangle,10.4000116,9.599993706,1,0,0,3,5,0,0.000475,10.4000116,9.599993706,1,0,0,0,160,160,112,1,,,,,,,,,,,,,,,,,,,,,
,,,,,,,,,,,,,,,,,,,,,,,,,,,,,,,,,,,,,,,,,,,5f5146d7f21c6b36727ba867,5ff3a76ae766bba1e590e946,2021-01-04_15h40.42.400,Colour_Similarity_Experiment_v1,2020.1.2,Win32,60,5ff3a352adaa099f7659f8cc,,,,,,,,,,,,,,,,,,,,PF,,,,,,,,2,1.532465,,,,,,,,,,,,,,,,,,,,,,,,,,,,3,-68.79998958,-50.40000719,1,0,0,response5disk,4,162,-9.599988699,-16.00000668,1,0,0,rectangle,-9.599988699,-16.00000668,1,0,0,3,2,0,0.000635,-9.599988699,-16.00000668,1,0,0,0,161,161,30,1,,,,,,,,,,,,,,,,,,,,,
,,,,,,,,,,,,,,,,,,,,,,,,,,,,,,,,,,,,,,,,,,,5f5146d7f21c6b36727ba867,5ff3a76ae766bba1e590e946,2021-01-04_15h40.42.400,Colour_Similarity_Experiment_v1,2020.1.2,Win32,60,5ff3a352adaa099f7659f8cc,,,,,,,,,,,,,,,,,,,,,,,,,,,,,,,,,,,,,,,,,,,,,,,,,,,,,,,,,,,,,,,,,,,,,,,,,,,,,,,,,,,,,,,,,,,,,0,0,0,0,1,,,,,,,,,,,,,,
,,,,,,,,,,,,,,,,,,,,,,,,,,,,,,,,,,,,,,,,,,,5f5146d7f21c6b36727ba867,5ff3a76ae766bba1e590e946,2021-01-04_15h40.42.400,Colour_Similarity_Experiment_v1,2020.1.2,Win32,60,5ff3a352adaa099f7659f8cc,,,,,,,,,,,,,,,,,,,,FF,,,,,,,,7,0.7001,,,,,,,,,,,,,,,,,,,,,,,,,,,,1,22.40001178,71.19997021,1,0,0,response1disk,3,163,-2.399939764,2.399993598,1,0,0,rectangle,-2.399939764,2.399993598,1,0,0,3,0,0,0.00149,-2.399939764,2.399993598,1,0,0,0,0,0,99,1,,,,,,,,,,,,,,,,,,,,,
,,,,,,,,,,,,,,,,,,,,,,,,,,,,,,,,,,,,,,,,,,,5f5146d7f21c6b36727ba867,5ff3a76ae766bba1e590e946,2021-01-04_15h40.42.400,Colour_Similarity_Experiment_v1,2020.1.2,Win32,60,5ff3a352adaa099f7659f8cc,,,,,,,,,,,,,,,,,,,,PF,,,,,,,,7,0.566075,,,,,,,,,,,,,,,,,,,,,,,,,,,,4,46.40001214,76.79999471,1,0,0,response1disk,7,164,4.800011516,13.59999377,1,0,0,rectangle,4.800011516,13.59999377,1,0,0,3,4,0,0.001705,4.800011516,13.59999377,1,0,0,0,1,1,38,1,,,,,,,,,,,,,,,,,,,,,
,,,,,,,,,,,,,,,,,,,,,,,,,,,,,,,,,,,,,,,,,,,5f5146d7f21c6b36727ba867,5ff3a76ae766bba1e590e946,2021-01-04_15h40.42.400,Colour_Similarity_Experiment_v1,2020.1.2,Win32,60,5ff3a352adaa099f7659f8cc,,,,,,,,,,,,,,,,,,,,PF,,,,,,,,7,0.415185,,,,,,,,,,,,,,,,,,,,,,,,,,,,3,36.00001198,59.99999446,1,0,0,response1disk,9,165,4.800011516,6.399993658,1,0,0,rectangle,4.800011516,6.399993658,1,0,0,3,0,0,0.000435,4.800011516,6.399993658,1,0,0,0,2,2,79,1,,,,,,,,,,,,,,,,,,,,,
,,,,,,,,,,,,,,,,,,,,,,,,,,,,,,,,,,,,,,,,,,,5f5146d7f21c6b36727ba867,5ff3a76ae766bba1e590e946,2021-01-04_15h40.42.400,Colour_Similarity_Experiment_v1,2020.1.2,Win32,60,5ff3a352adaa099f7659f8cc,,,,,,,,,,,,,,,,,,,,PF,,,,,,,,0,0.81576,,,,,,,,,,,,,,,,,,,,,,,,,,,,6,-27.99998897,68.79999459,1,0,0,response7disk,6,166,-18.39994,10.39999372,1,0,0,rectangle,-18.39994,10.39999372,1,0,0,3,3,0,0.000425,-18.39994,10.39999372,1,0,0,0,3,3,0,1,,,,,,,,,,,,,,,,,,,,,
,,,,,,,,,,,,,,,,,,,,,,,,,,,,,,,,,,,,,,,,,,,5f5146d7f21c6b36727ba867,5ff3a76ae766bba1e590e946,2021-01-04_15h40.42.400,Colour_Similarity_Experiment_v1,2020.1.2,Win32,60,5ff3a352adaa099f7659f8cc,,,,,,,,,,,,,,,,,,,,PF,,,,,,,,4,1.80082,,,,,,,,,,,,,,,,,,,,,,,,,,,,3,40.00001204,-100.8000079,1,0,0,response3disk,2,167,-1.59998858,13.59999377,1,0,0,rectangle,-54.39994054,-37.600007,1,0,0,3,2,1,1.31743,-7.199988663,-0.800006449,1,0,0,0,4,4,36,1,response5disk_3,rectangle,,,,,,,,,,,,,,,,,,,
,,,,,,,,,,,,,,,,,,,,,,,,,,,,,,,,,,,,,,,,,,,5f5146d7f21c6b36727ba867,5ff3a76ae766bba1e590e946,2021-01-04_15h40.42.400,Colour_Similarity_Experiment_v1,2020.1.2,Win32,60,5ff3a352adaa099f7659f8cc,,,,,,,,,,,,,,,,,,,,FF,,,,,,,,7,0.734425,,,,,,,,,,,,,,,,,,,,,,,,,,,,9,29.60006071,71.19997021,1,0,0,response1disk,8,168,-4.799988627,3.999993622,1,0,0,rectangle,-4.799988627,3.999993622,1,0,0,3,1,0,0.000455,-4.799988627,3.999993622,1,0,0,0,5,5,6,1,,,,,,,,,,,,,,,,,,,,,
,,,,,,,,,,,,,,,,,,,,,,,,,,,,,,,,,,,,,,,,,,,5f5146d7f21c6b36727ba867,5ff3a76ae766bba1e590e946,2021-01-04_15h40.42.400,Colour_Similarity_Experiment_v1,2020.1.2,Win32,60,5ff3a352adaa099f7659f8cc,,,,,,,,,,,,,,,,,,,,PF,,,,,,,,7,0.59928,,,,,,,,,,,,,,,,,,,,,,,,,,,,3,32.00001192,65.59999454,1,0,0,response1disk,6,169,-5.599988639,5.599993646,1,0,0,rectangle,-5.599988639,5.599993646,1,0,0,3,7,0,0.00046,-5.599988639,5.599993646,1,0,0,0,6,6,47,1,,,,,,,,,,,,,,,,,,,,,
,,,,,,,,,,,,,,,,,,,,,,,,,,,,,,,,,,,,,,,,,,,5f5146d7f21c6b36727ba867,5ff3a76ae766bba1e590e946,2021-01-04_15h40.42.400,Colour_Similarity_Experiment_v1,2020.1.2,Win32,60,5ff3a352adaa099f7659f8cc,,,,,,,,,,,,,,,,,,,,FF,,,,,,,,7,0.517205,,,,,,,,,,,,,,,,,,,,,,,,,,,,4,26.40001184,34.39999408,1,0,0,response1disk,1,170,2.40001148,6.399993658,1,0,0,rectangle,2.40001148,6.399993658,1,0,0,3,3,0,0.001825,2.40001148,6.399993658,1,0,0,0,7,7,102,1,,,,,,,,,,,,,,,,,,,,,
,,,,,,,,,,,,,,,,,,,,,,,,,,,,,,,,,,,,,,,,,,,5f5146d7f21c6b36727ba867,5ff3a76ae766bba1e590e946,2021-01-04_15h40.42.400,Colour_Similarity_Experiment_v1,2020.1.2,Win32,60,5ff3a352adaa099f7659f8cc,,,,,,,,,,,,,,,,,,,,PF,,,,,,,,7,0.966775,,,,,,,,,,,,,,,,,,,,,,,,,,,,5,21.60006059,52.79999435,1,0,0,response1disk,2,171,4.000011504,-4.800006509,1,0,0,rectangle,4.000011504,-4.800006509,1,0,0,3,5,0,0.00162,4.000011504,-4.800006509,1,0,0,0,8,8,129,1,,,,,,,,,,,,,,,,,,,,,
,,,,,,,,,,,,,,,,,,,,,,,,,,,,,,,,,,,,,,,,,,,5f5146d7f21c6b36727ba867,5ff3a76ae766bba1e590e946,2021-01-04_15h40.42.400,Colour_Similarity_Experiment_v1,2020.1.2,Win32,60,5ff3a352adaa099f7659f8cc,,,,,,,,,,,,,,,,,,,,FF,,,,,,,,7,0.632765,,,,,,,,,,,,,,,,,,,,,,,,,,,,8,28.00001186,48.79999429,1,0,0,response1disk,5,172,0.800011456,4.799993634,1,0,0,rectangle,0.800011456,4.799993634,1,0,0,3,5,0,0.00052,0.800011456,4.799993634,1,0,0,0,9,9,152,1,,,,,,,,,,,,,,,,,,,,,
,,,,,,,,,,,,,,,,,,,,,,,,,,,,,,,,,,,,,,,,,,,5f5146d7f21c6b36727ba867,5ff3a76ae766bba1e590e946,2021-01-04_15h40.42.400,Colour_Similarity_Experiment_v1,2020.1.2,Win32,60,5ff3a352adaa099f7659f8cc,,,,,,,,,,,,,,,,,,,,PF,,,,,,,,7,0.683995,,,,,,,,,,,,,,,,,,,,,,,,,,,,5,41.60006089,61.59999448,1,0,0,response1disk,1,173,4.000011504,-1.600006461,1,0,0,rectangle,-82.39994096,-43.20000708,1,0,0,3,2,1,1.41593,-13.59998876,3.19999361,1,0,0,0,10,10,159,1,response5disk_3,rectangle,,,,,,,,,,,,,,,,,,,
,,,,,,,,,,,,,,,,,,,,,,,,,,,,,,,,,,,,,,,,,,,5f5146d7f21c6b36727ba867,5ff3a76ae766bba1e590e946,2021-01-04_15h40.42.400,Colour_Similarity_Experiment_v1,2020.1.2,Win32,60,5ff3a352adaa099f7659f8cc,,,,,,,,,,,,,,,,,,,,FF,,,,,,,,7,0.783435,,,,,,,,,,,,,,,,,,,,,,,,,,,,3,24.80001181,71.99999464,1,0,0,response1disk,6,174,2.40001148,3.19999361,1,0,0,rectangle,2.40001148,3.19999361,1,0,0,3,3,0,0.00505,2.40001148,3.19999361,1,0,0,0,11,11,95,1,,,,,,,,,,,,,,,,,,,,,
,,,,,,,,,,,,,,,,,,,,,,,,,,,,,,,,,,,,,,,,,,,5f5146d7f21c6b36727ba867,5ff3a76ae766bba1e590e946,2021-01-04_15h40.42.400,Colour_Similarity_Experiment_v1,2020.1.2,Win32,60,5ff3a352adaa099f7659f8cc,,,,,,,,,,,,,,,,,,,,PF,,,,,,,,4,2.53307,,,,,,,,,,,,,,,,,,,,,,,,,,,,3,26.40001184,-81.60005648,1,0,0,response3disk,4,175,-3.199988604,3.19999361,1,0,0,rectangle,-3.199988604,3.19999361,1,0,0,3,1,0,0.001655,-3.199988604,3.19999361,1,0,0,0,12,12,30,1,,,,,,,,,,,,,,,,,,,,,
,,,,,,,,,,,,,,,,,,,,,,,,,,,,,,,,,,,,,,,,,,,5f5146d7f21c6b36727ba867,5ff3a76ae766bba1e590e946,2021-01-04_15h40.42.400,Colour_Similarity_Experiment_v1,2020.1.2,Win32,60,5ff3a352adaa099f7659f8cc,,,,,,,,,,,,,,,,,,,,FF,,,,,,,,7,0.58349,,,,,,,,,,,,,,,,,,,,,,,,,,,,1,36.00001198,74.39999467,1,0,0,response1disk,4,176,-2.399939764,1.599993587,1,0,0,rectangle,-2.399939764,1.599993587,1,0,0,3,7,0,0.00044,-2.399939764,1.599993587,1,0,0,0,13,13,135,1,,,,,,,,,,,,,,,,,,,,,
,,,,,,,,,,,,,,,,,,,,,,,,,,,,,,,,,,,,,,,,,,,5f5146d7f21c6b36727ba867,5ff3a76ae766bba1e590e946,2021-01-04_15h40.42.400,Colour_Similarity_Experiment_v1,2020.1.2,Win32,60,5ff3a352adaa099f7659f8cc,,,,,,,,,,,,,,,,,,,,FF,,,,,,,,0,0.683285,,,,,,,,,,,,,,,,,,,,,,,,,,,,4,-27.19998896,75.9999947,1,0,0,response7disk,4,177,-2.399939764,5.599993646,1,0,0,rectangle,-2.399939764,5.599993646,1,0,0,3,1,0,0.00147,-2.399939764,5.599993646,1,0,0,0,14,14,84,1,,,,,,,,,,,,,,,,,,,,,
,,,,,,,,,,,,,,,,,,,,,,,,,,,,,,,,,,,,,,,,,,,5f5146d7f21c6b36727ba867,5ff3a76ae766bba1e590e946,2021-01-04_15h40.42.400,Colour_Similarity_Experiment_v1,2020.1.2,Win32,60,5ff3a352adaa099f7659f8cc,,,,,,,,,,,,,,,,,,,,FF,,,,,,,,0,0.78338,,,,,,,,,,,,,,,,,,,,,,,,,,,,3,-31.99998903,80.79999477,1,0,0,response7disk,3,178,-8.799988687,9.599993706,1,0,0,rectangle,-8.799988687,9.599993706,1,0,0,3,2,0,0.001525,-8.799988687,9.599993706,1,0,0,0,15,15,68,1,,,,,,,,,,,,,,,,,,,,,
,,,,,,,,,,,,,,,,,,,,,,,,,,,,,,,,,,,,,,,,,,,5f5146d7f21c6b36727ba867,5ff3a76ae766bba1e590e946,2021-01-04_15h40.42.400,Colour_Similarity_Experiment_v1,2020.1.2,Win32,60,5ff3a352adaa099f7659f8cc,,,,,,,,,,,,,,,,,,,,FF,,,,,,,,7,0.66626,,,,,,,,,,,,,,,,,,,,,,,,,,,,8,43.20001209,84.79999483,1,0,0,response1disk,7,179,18.40001172,3.19999361,1,0,0,rectangle,18.40001172,3.19999361,1,0,0,3,7,0,0.001545,18.40001172,3.19999361,1,0,0,0,16,16,86,1,,,,,,,,,,,,,,,,,,,,,
,,,,,,,,,,,,,,,,,,,,,,,,,,,,,,,,,,,,,,,,,,,5f5146d7f21c6b36727ba867,5ff3a76ae766bba1e590e946,2021-01-04_15h40.42.400,Colour_Similarity_Experiment_v1,2020.1.2,Win32,60,5ff3a352adaa099f7659f8cc,,,,,,,,,,,,,,,,,,,,PF,,,,,,,,0,0.833345,,,,,,,,,,,,,,,,,,,,,,,,,,,,9,-46.39994042,82.39999479,1,0,0,response7disk,9,180,-10.39993988,-1.600006461,1,0,0,rectangle,-10.39993988,-1.600006461,1,0,0,3,1,0,0.00054,-10.39993988,-1.600006461,1,0,0,0,17,17,106,1,,,,,,,,,,,,,,,,,,,,,
,,,,,,,,,,,,,,,,,,,,,,,,,,,,,,,,,,,,,,,,,,,5f5146d7f21c6b36727ba867,5ff3a76ae766bba1e590e946,2021-01-04_15h40.42.400,Colour_Similarity_Experiment_v1,2020.1.2,Win32,60,5ff3a352adaa099f7659f8cc,,,,,,,,,,,,,,,,,,,,FF,,,,,,,,7,0.700845,,,,,,,,,,,,,,,,,,,,,,,,,,,,8,20.00001174,67.99999458,1,0,0,response1disk,3,181,0.800011456,11.99999374,1,0,0,rectangle,0.800011456,11.99999374,1,0,0,3,1,0,0.00062,0.800011456,11.99999374,1,0,0,0,18,18,154,1,,,,,,,,,,,,,,,,,,,,,
,,,,,,,,,,,,,,,,,,,,,,,,,,,,,,,,,,,,,,,,,,,5f5146d7f21c6b36727ba867,5ff3a76ae766bba1e590e946,2021-01-04_15h40.42.400,Colour_Similarity_Experiment_v1,2020.1.2,Win32,60,5ff3a352adaa099f7659f8cc,,,,,,,,,,,,,,,,,,,,FF,,,,,,,,7,0.717395,,,,,,,,,,,,,,,,,,,,,,,,,,,,6,31.20001191,72.79999465,1,0,0,response1disk,9,182,10.4000116,6.399993658,1,0,0,rectangle,-75.99998969,-36.80000699,1,0,0,3,2,1,1.16694,-4.799988627,0.799993575,1,0,0,0,19,19,160,1,response5disk_3,rectangle,,,,,,,,,,,,,,,,,,,
,,,,,,,,,,,,,,,,,,,,,,,,,,,,,,,,,,,,,,,,,,,5f5146d7f21c6b36727ba867,5ff3a76ae766bba1e590e946,2021-01-04_15h40.42.400,Colour_Similarity_Experiment_v1,2020.1.2,Win32,60,5ff3a352adaa099f7659f8cc,,,,,,,,,,,,,,,,,,,,PF,,,,,,,,7,0.982665,,,,,,,,,,,,,,,,,,,,,,,,,,,,1,28.80001187,75.19997027,1,0,0,response1disk,7,183,6.400011539,5.599993646,1,0,0,rectangle,6.400011539,5.599993646,1,0,0,3,5,0,0.001585,6.400011539,5.599993646,1,0,0,0,20,20,150,1,,,,,,,,,,,,,,,,,,,,,
,,,,,,,,,,,,,,,,,,,,,,,,,,,,,,,,,,,,,,,,,,,5f5146d7f21c6b36727ba867,5ff3a76ae766bba1e590e946,2021-01-04_15h40.42.400,Colour_Similarity_Experiment_v1,2020.1.2,Win32,60,5ff3a352adaa099f7659f8cc,,,,,,,,,,,,,,,,,,,,FF,,,,,,,,7,1.250075,,,,,,,,,,,,,,,,,,,,,,,,,,,,5,25.60006065,51.19996991,1,0,0,response1disk,2,184,-4.799988627,3.19999361,1,0,0,rectangle,-83.99998981,34.39999408,1,0,0,1,1,1,1.36729,-4.799988627,3.999993622,1,0,0,0,21,21,55,1,response7disk_3,rectangle,,,,,,,,,,,,,,,,,,,
,,,,,,,,,,,,,,,,,,,,,,,,,,,,,,,,,,,,,,,,,,,5f5146d7f21c6b36727ba867,5ff3a76ae766bba1e590e946,2021-01-04_15h40.42.400,Colour_Similarity_Experiment_v1,2020.1.2,Win32,60,5ff3a352adaa099f7659f8cc,,,,,,,,,,,,,,,,,,,,FF,,,,,,,,7,0.699555,,,,,,,,,,,,,,,,,,,,,,,,,,,,1,23.20001179,79.19997033,1,0,0,response1disk,5,185,2.40001148,11.99999374,1,0,0,rectangle,2.40001148,11.99999374,1,0,0,1,2,0,0.00043,2.40001148,11.99999374,1,0,0,0,22,22,82,1,,,,,,,,,,,,,,,,,,,,,
,,,,,,,,,,,,,,,,,,,,,,,,,,,,,,,,,,,,,,,,,,,5f5146d7f21c6b36727ba867,5ff3a76ae766bba1e590e946,2021-01-04_15h40.42.400,Colour_Similarity_Experiment_v1,2020.1.2,Win32,60,5ff3a352adaa099f7659f8cc,,,,,,,,,,,,,,,,,,,,FF,,,,,,,,7,0.80007,,,,,,,,,,,,,,,,,,,,,,,,,,,,8,28.00001186,75.19997027,1,0,0,response1disk,4,186,-4.799988627,-2.400006473,1,0,0,rectangle,-4.799988627,-2.400006473,1,0,0,1,4,0,0.000415,-4.799988627,-2.400006473,1,0,0,0,23,23,88,1,,,,,,,,,,,,,,,,,,,,,
,,,,,,,,,,,,,,,,,,,,,,,,,,,,,,,,,,,,,,,,,,,5f5146d7f21c6b36727ba867,5ff3a76ae766bba1e590e946,2021-01-04_15h40.42.400,Colour_Similarity_Experiment_v1,2020.1.2,Win32,60,5ff3a352adaa099f7659f8cc,,,,,,,,,,,,,,,,,,,,FF,,,,,,,,7,0.933855,,,,,,,,,,,,,,,,,,,,,,,,,,,,5,24.0000118,72.79999465,1,0,0,response1disk,8,187,2.40001148,7.999993682,1,0,0,rectangle,2.40001148,7.999993682,1,0,0,1,5,0,0.00176,2.40001148,7.999993682,1,0,0,0,24,24,16,1,,,,,,,,,,,,,,,,,,,,,
,,,,,,,,,,,,,,,,,,,,,,,,,,,,,,,,,,,,,,,,,,,5f5146d7f21c6b36727ba867,5ff3a76ae766bba1e590e946,2021-01-04_15h40.42.400,Colour_Similarity_Experiment_v1,2020.1.2,Win32,60,5ff3a352adaa099f7659f8cc,,,,,,,,,,,,,,,,,,,,PF,,,,,,,,7,0.86692,,,,,,,,,,,,,,,,,,,,,,,,,,,,6,24.0000118,51.99999434,1,0,0,response1disk,3,188,-9.599988699,-5.600006521,1,0,0,rectangle,-9.599988699,-5.600006521,1,0,0,1,4,0,0.001875,-9.599988699,-5.600006521,1,0,0,0,25,25,26,1,,,,,,,,,,,,,,,,,,,,,
,,,,,,,,,,,,,,,,,,,,,,,,,,,,,,,,,,,,,,,,,,,5f5146d7f21c6b36727ba867,5ff3a76ae766bba1e590e946,2021-01-04_15h40.42.400,Colour_Similarity_Experiment_v1,2020.1.2,Win32,60,5ff3a352adaa099f7659f8cc,,,,,,,,,,,,,,,,,,,,PF,,,,,,,,7,0.649575,,,,,,,,,,,,,,,,,,,,,,,,,,,,5,24.80001181,55.9999944,1,0,0,response1disk,9,189,1.600060296,5.599993646,1,0,0,rectangle,39.20001203,-112.8000081,1,0,0,4,4,1,1.583525,-3.999988616,2.399993598,1,0,0,0,26,26,136,1,response3disk_3,rectangle,,,,,,,,,,,,,,,,,,,
,,,,,,,,,,,,,,,,,,,,,,,,,,,,,,,,,,,,,,,,,,,5f5146d7f21c6b36727ba867,5ff3a76ae766bba1e590e946,2021-01-04_15h40.42.400,Colour_Similarity_Experiment_v1,2020.1.2,Win32,60,5ff3a352adaa099f7659f8cc,,,,,,,,,,,,,,,,,,,,FF,,,,,,,,7,0.633235,,,,,,,,,,,,,,,,,,,,,,,,,,,,4,26.40001184,74.39999467,1,0,0,response1disk,8,190,16.00001168,10.39999372,1,0,0,rectangle,16.00001168,10.39999372,1,0,0,4,5,0,0.001555,16.00001168,10.39999372,1,0,0,0,27,27,35,1,,,,,,,,,,,,,,,,,,,,,
,,,,,,,,,,,,,,,,,,,,,,,,,,,,,,,,,,,,,,,,,,,5f5146d7f21c6b36727ba867,5ff3a76ae766bba1e590e946,2021-01-04_15h40.42.400,Colour_Similarity_Experiment_v1,2020.1.2,Win32,60,5ff3a352adaa099f7659f8cc,,,,,,,,,,,,,,,,,,,,PF,,,,,,,,0,0.74987,,,,,,,,,,,,,,,,,,,,,,,,,,,,3,-43.99998921,59.99999446,1,0,0,response7disk,3,191,-16.79998881,-4.800006509,1,0,0,rectangle,-16.79998881,-4.800006509,1,0,0,4,3,0,0.000415,-16.79998881,-4.800006509,1,0,0,0,28,28,4,1,,,,,,,,,,,,,,,,,,,,,
,,,,,,,,,,,,,,,,,,,,,,,,,,,,,,,,,,,,,,,,,,,5f5146d7f21c6b36727ba867,5ff3a76ae766bba1e590e946,2021-01-04_15h40.42.400,Colour_Similarity_Experiment_v1,2020.1.2,Win32,60,5ff3a352adaa099f7659f8cc,,,,,,,,,,,,,,,,,,,,FF,,,,,,,,5,1.68425,,,,,,,,,,,,,,,,,,,,,,,,,,,,2,68.80001247,-40.80000705,1,0,0,response3disk,3,192,-15.99998879,7.19999367,1,0,0,rectangle,-66.39994072,-25.60000682,1,0,0,4,2,1,1.15018,-3.199988604,-8.800006568,1,0,0,0,29,29,104,1,response5disk_3,rectangle,,,,,,,,,,,,,,,,,,,
,,,,,,,,,,,,,,,,,,,,,,,,,,,,,,,,,,,,,,,,,,,5f5146d7f21c6b36727ba867,5ff3a76ae766bba1e590e946,2021-01-04_15h40.42.400,Colour_Similarity_Experiment_v1,2020.1.2,Win32,60,5ff3a352adaa099f7659f8cc,,,,,,,,,,,,,,,,,,,,PF,,,,,,,,7,1.26771,,,,,,,,,,,,,,,,,,,,,,,,,,,,4,24.0000118,61.59999448,1,0,0,response1disk,1,193,10.4000116,16.79999381,1,0,0,rectangle,10.4000116,16.79999381,1,0,0,4,6,0,0.001515,10.4000116,16.79999381,1,0,0,0,30,30,115,1,,,,,,,,,,,,,,,,,,,,,
,,,,,,,,,,,,,,,,,,,,,,,,,,,,,,,,,,,,,,,,,,,5f5146d7f21c6b36727ba867,5ff3a76ae766bba1e590e946,2021-01-04_15h40.42.400,Colour_Similarity_Experiment_v1,2020.1.2,Win32,60,5ff3a352adaa099f7659f8cc,,,,,,,,,,,,,,,,,,,,PF,,,,,,,,7,0.60016,,,,,,,,,,,,,,,,,,,,,,,,,,,,7,38.40001202,75.19997027,1,0,0,response1disk,9,194,8.000011563,7.19999367,1,0,0,rectangle,8.000011563,7.19999367,1,0,0,4,7,0,0.001495,8.000011563,7.19999367,1,0,0,0,31,31,10,1,,,,,,,,,,,,,,,,,,,,,
,,,,,,,,,,,,,,,,,,,,,,,,,,,,,,,,,,,,,,,,,,,5f5146d7f21c6b36727ba867,5ff3a76ae766bba1e590e946,2021-01-04_15h40.42.400,Colour_Similarity_Experiment_v1,2020.1.2,Win32,60,5ff3a352adaa099f7659f8cc,,,,,,,,,,,,,,,,,,,,PF,,,,,,,,6,2.266695,,,,,,,,,,,,,,,,,,,,,,,,,,,,4,77.6000126,24.79999393,1,0,0,response1disk,2,195,21.60006059,3.19999361,1,0,0,rectangle,21.60006059,3.19999361,1,0,0,4,3,0,0.00044,21.60006059,3.19999361,1,0,0,0,32,32,108,1,,,,,,,,,,,,,,,,,,,,,
,,,,,,,,,,,,,,,,,,,,,,,,,,,,,,,,,,,,,,,,,,,5f5146d7f21c6b36727ba867,5ff3a76ae766bba1e590e946,2021-01-04_15h40.42.400,Colour_Similarity_Experiment_v1,2020.1.2,Win32,60,5ff3a352adaa099f7659f8cc,,,,,,,,,,,,,,,,,,,,PF,,,,,,,,7,0.632845,,,,,,,,,,,,,,,,,,,,,,,,,,,,1,25.60006065,62.39999449,1,0,0,response1disk,6,196,-8.799988687,1.599993587,1,0,0,rectangle,-8.799988687,1.599993587,1,0,0,4,0,0,0.00144,-8.799988687,1.599993587,1,0,0,0,33,33,144,1,,,,,,,,,,,,,,,,,,,,,
,,,,,,,,,,,,,,,,,,,,,,,,,,,,,,,,,,,,,,,,,,,5f5146d7f21c6b36727ba867,5ff3a76ae766bba1e590e946,2021-01-04_15h40.42.400,Colour_Similarity_Experiment_v1,2020.1.2,Win32,60,5ff3a352adaa099f7659f8cc,,,,,,,,,,,,,,,,,,,,FF,,,,,,,,0,0.7001,,,,,,,,,,,,,,,,,,,,,,,,,,,,9,-34.39994024,65.59999454,1,0,0,response7disk,9,197,-9.599988699,1.599993587,1,0,0,rectangle,-9.599988699,1.599993587,1,0,0,4,2,0,0.001415,-9.599988699,1.599993587,1,0,0,0,34,34,17,1,,,,,,,,,,,,,,,,,,,,,
,,,,,,,,,,,,,,,,,,,,,,,,,,,,,,,,,,,,,,,,,,,5f5146d7f21c6b36727ba867,5ff3a76ae766bba1e590e946,2021-01-04_15h40.42.400,Colour_Similarity_Experiment_v1,2020.1.2,Win32,60,5ff3a352adaa099f7659f8cc,,,,,,,,,,,,,,,,,,,,PF,,,,,,,,7,0.84947,,,,,,,,,,,,,,,,,,,,,,,,,,,,6,75.20001256,105.5999951,1,0,0,response1disk,1,198,12.00001162,3.19999361,1,0,0,rectangle,12.00001162,3.19999361,1,0,0,4,7,0,0.000785,12.00001162,3.19999361,1,0,0,0,35,35,46,1,,,,,,,,,,,,,,,,,,,,,
,,,,,,,,,,,,,,,,,,,,,,,,,,,,,,,,,,,,,,,,,,,5f5146d7f21c6b36727ba867,5ff3a76ae766bba1e590e946,2021-01-04_15h40.42.400,Colour_Similarity_Experiment_v1,2020.1.2,Win32,60,5ff3a352adaa099f7659f8cc,,,,,,,,,,,,,,,,,,,,FF,,,,,,,,7,0.6173,,,,,,,,,,,,,,,,,,,,,,,,,,,,9,28.80001187,69.5999946,1,0,0,response1disk,5,199,7.200011551,-6.4373E-06,1,0,0,rectangle,7.200011551,-6.4373E-06,1,0,0,4,6,0,0.00043,7.200011551,-6.4373E-06,1,0,0,0,36,36,128,1,,,,,,,,,,,,,,,,,,,,,
