key_resp.keys,key_resp.rt,key_resp_16.keys,key_resp_16.rt,key_resp_2.keys,key_resp_2.rt,X Scale,ratio_pxpermm,screen_size_x,screen_size_y,testsize,key_resp_3.keys,key_resp_3.rt,key_resp_4.keys,key_resp_4.rt,line_size,key_resp_5.keys,key_resp_5.rt,key_resp_6.keys,key_resp_6.rt,key_resp_8.keys,key_resp_8.rt,key_resp_7.keys,key_resp_7.rt,key_resp_12.keys,key_resp_12.rt,key_resp_11.keys,key_resp_11.rt,key_resp_18.keys,key_resp_18.rt,key_resp_21.keys,key_resp_21.rt,key_resp_13.keys,key_resp_13.rt,key_resp_19.keys,key_resp_19.rt,ballposx,viewer_distance,trials.thisRepN,trials.thisTrialN,trials.thisN,trials.thisIndex,trials.ran,participant,session,date,expName,psychopyVersion,OS,frameRate,study_id,viewerdistancecm,DVA_to_distance,radius_F,radius_P,r_F,R_P,key_resp_20.keys,key_resp_20.rt,key_resp_14.keys,key_resp_14.rt,key_resp_15.keys,key_resp_15.rt,key_resp_17.keys,key_resp_17.rt,key_resp_9.keys,key_resp_9.rt,key_resp_10.keys,key_resp_10.rt,Colour_1,Ecc,mouse_5.x,mouse_5.y,mouse_5.leftButton,mouse_5.midButton,mouse_5.rightButton,mouse_5.clicked_name,Colour_2,similarity,response_time,mouse_10.x,mouse_10.y,mouse_10.leftButton,mouse_10.midButton,mouse_10.rightButton,mouse_10.clicked_name,mouse_7.x,mouse_7.y,mouse_7.leftButton,mouse_7.midButton,mouse_7.rightButton,mouse_7.clicked_name,catchprac,catchnumberprac,mouse_6.x,mouse_6.y,mouse_6.leftButton,mouse_6.midButton,mouse_6.rightButton,mouse_6.clicked_name,duringprac.thisRepN,duringprac.thisTrialN,duringprac.thisN,duringprac.thisIndex,duringprac.ran,key_resp_22.keys,key_resp_22.rt,Colour1,mouse.x,mouse.y,mouse.leftButton,mouse.midButton,mouse.rightButton,mouse.clicked_name,Colour2,trialnumber,mouse_2.x,mouse_2.y,mouse_2.leftButton,mouse_2.midButton,mouse_2.rightButton,mouse_2.clicked_name,mouse_3.x,mouse_3.y,mouse_3.leftButton,mouse_3.midButton,mouse_3.rightButton,catchresponse,catchnumber,Catch,response_time_catch,mouse_11.x,mouse_11.y,mouse_11.leftButton,mouse_11.midButton,mouse_11.rightButton,trials_2.thisRepN,trials_2.thisTrialN,trials_2.thisN,trials_2.thisIndex,trials_2.ran,mouse_3.clicked_name,mouse_11.clicked_name,trials_3.thisRepN,trials_3.thisTrialN,trials_3.thisN,trials_3.thisIndex,trials_3.ran,answer1,rt1,answer2,rt2,answer3,rt3,answer4,rt4,answer5,rt5,answer6,rt6,answer7,rt7
space,2.34876,space,42.14753,space,6.168995,37.6,3.76,510.6382979,287.2340426,1920,space,16.40296,space,9.891235,75.2,space,11.96343,space,6.741045,space,3.30561,space,11.005615,space,15.10393,space,14.63523,space,16.35992,space,23.96049,space,9.250845,return,5.33255,-201.6,1074.115999,0,0,0,0,1,5f596c23afaf421c275d4640,5ff3a402bc4c4da0edd58235,2021-01-05_00h26.03.749,Colour_Similarity_Experiment_v1,2020.1.2,Win32,60,5ff3a352adaa099f7659f8cc,,,,,,,,,,,,,,,,,,,,,,,,,,,,,,,,,,,,,,,,,,,,,,,,,,,,,,,,,,,,,,,,,,,,,,,,,,,,,,,,,,,,,,,,,,,,,,,,,,,,,,,,,,,,,,,
,,,,,,,,,,,,,,,,,,,,,,,,,,,,,,,,,,return,5.300705,-198.72,1070.925555,1,0,1,0,1,5f596c23afaf421c275d4640,5ff3a402bc4c4da0edd58235,2021-01-05_00h26.03.749,Colour_Similarity_Experiment_v1,2020.1.2,Win32,60,5ff3a352adaa099f7659f8cc,,,,,,,,,,,,,,,,,,,,,,,,,,,,,,,,,,,,,,,,,,,,,,,,,,,,,,,,,,,,,,,,,,,,,,,,,,,,,,,,,,,,,,,,,,,,,,,,,,,,,,,,,,,,,,,
,,,,,,,,,,,,,,,,,,,,,,,,,,,,,,,,,,return,5.552935,-241.92,1118.782209,2,0,2,0,1,5f596c23afaf421c275d4640,5ff3a402bc4c4da0edd58235,2021-01-05_00h26.03.749,Colour_Similarity_Experiment_v1,2020.1.2,Win32,60,5ff3a352adaa099f7659f8cc,,,,,,,,,,,,,,,,,,,,,,,,,,,,,,,,,,,,,,,,,,,,,,,,,,,,,,,,,,,,,,,,,,,,,,,,,,,,,,,,,,,,,,,,,,,,,,,,,,,,,,,,,,,,,,,
,,,,,,,,,,,,,,,,,,,,,,,,,,,,,,,,,,return,5.51708,-236.16,1112.401322,3,0,3,0,1,5f596c23afaf421c275d4640,5ff3a402bc4c4da0edd58235,2021-01-05_00h26.03.749,Colour_Similarity_Experiment_v1,2020.1.2,Win32,60,5ff3a352adaa099f7659f8cc,,,,,,,,,,,,,,,,,,,,,,,,,,,,,,,,,,,,,,,,,,,,,,,,,,,,,,,,,,,,,,,,,,,,,,,,,,,,,,,,,,,,,,,,,,,,,,,,,,,,,,,,,,,,,,,
,,,,,,,,,,,,,,,,,,,,,,,,,,,,,,,,,,return,5.333895,-204.48,1077.306443,4,0,4,0,1,5f596c23afaf421c275d4640,5ff3a402bc4c4da0edd58235,2021-01-05_00h26.03.749,Colour_Similarity_Experiment_v1,2020.1.2,Win32,60,5ff3a352adaa099f7659f8cc,,,,,,,,,,,,,,,,,,,,,,,,,,,,,,,,,,,,,,,,,,,,,,,,,,,,,,,,,,,,,,,,,,,,,,,,,,,,,,,,,,,,,,,,,,,,,,,,,,,,,,,,,,,,,,,
,,,,,,,,,,,,,,,,,,,,,,,,,,,,,,,,,,,,,,,,,,,5f596c23afaf421c275d4640,5ff3a402bc4c4da0edd58235,2021-01-05_00h26.03.749,Colour_Similarity_Experiment_v1,2020.1.2,Win32,60,5ff3a352adaa099f7659f8cc,108,18.85146338,106.3222535,708.8150231,70.88150231,318.9667604,space,4.735245,space,29.6946,space,60.340725,space,11.010275,space,11.240465,space,11.77583,7,FF,-123,53,1,0,0,response7disk_5,6,1,11.64348,0,3,1,0,0,rectangle_8,51,-131,1,0,0,response3disk_7,4,4,-2,-2,1,0,0,rectangle_4,0,0,0,0,1,,,,,,,,,,,,,,,,,,,,,,,,,,,,,,,,,,,,,,,,,,,,,,,,,,,,,,,,,
,,,,,,,,,,,,,,,,,,,,,,,,,,,,,,,,,,,,,,,,,,,5f596c23afaf421c275d4640,5ff3a402bc4c4da0edd58235,2021-01-05_00h26.03.749,Colour_Similarity_Experiment_v1,2020.1.2,Win32,60,5ff3a352adaa099f7659f8cc,,,,,,,,,,,,,,,,,,,1,FF,111,47,1,0,0,response1disk_5,5,6,8.897015,-5,-3,1,0,0,rectangle_8,-5,-3,1,0,0,,,4,-5,-3,1,0,0,,0,1,1,3,1,,,,,,,,,,,,,,,,,,,,,,,,,,,,,,,,,,,,,,,,,,,,,,,,,,,,,,,,,
,,,,,,,,,,,,,,,,,,,,,,,,,,,,,,,,,,,,,,,,,,,5f596c23afaf421c275d4640,5ff3a402bc4c4da0edd58235,2021-01-05_00h26.03.749,Colour_Similarity_Experiment_v1,2020.1.2,Win32,60,5ff3a352adaa099f7659f8cc,,,,,,,,,,,,,,,,,,,9,PF,52,100,1,0,0,response1disk_5,2,7,2.91354,0,4,1,0,0,rectangle_8,40,-103,1,0,0,response3disk_7,4,4,-12,3,1,0,0,rectangle_4,0,2,2,2,1,,,,,,,,,,,,,,,,,,,,,,,,,,,,,,,,,,,,,,,,,,,,,,,,,,,,,,,,,
,,,,,,,,,,,,,,,,,,,,,,,,,,,,,,,,,,,,,,,,,,,5f596c23afaf421c275d4640,5ff3a402bc4c4da0edd58235,2021-01-05_00h26.03.749,Colour_Similarity_Experiment_v1,2020.1.2,Win32,60,5ff3a352adaa099f7659f8cc,,,,,,,,,,,,,,,,,,,7,PF,100,-56,1,0,0,response3disk_5,4,5,4.036935,1,3,1,0,0,rectangle_8,1,3,1,0,0,,,4,1,3,1,0,0,,0,3,3,6,1,,,,,,,,,,,,,,,,,,,,,,,,,,,,,,,,,,,,,,,,,,,,,,,,,,,,,,,,,
,,,,,,,,,,,,,,,,,,,,,,,,,,,,,,,,,,,,,,,,,,,5f596c23afaf421c275d4640,5ff3a402bc4c4da0edd58235,2021-01-05_00h26.03.749,Colour_Similarity_Experiment_v1,2020.1.2,Win32,60,5ff3a352adaa099f7659f8cc,,,,,,,,,,,,,,,,,,,1,PF,49,100,1,0,0,response1disk_5,6,7,2.66424,4,5,1,0,0,rectangle_8,4,5,1,0,0,,,4,4,5,1,0,0,,0,4,4,1,1,,,,,,,,,,,,,,,,,,,,,,,,,,,,,,,,,,,,,,,,,,,,,,,,,,,,,,,,,
,,,,,,,,,,,,,,,,,,,,,,,,,,,,,,,,,,,,,,,,,,,5f596c23afaf421c275d4640,5ff3a402bc4c4da0edd58235,2021-01-05_00h26.03.749,Colour_Similarity_Experiment_v1,2020.1.2,Win32,60,5ff3a352adaa099f7659f8cc,,,,,,,,,,,,,,,,,,,1,PF,84,-101,1,0,0,response3disk_5,3,4,4.07121,1,3,1,0,0,rectangle_8,1,3,1,0,0,,,4,1,3,1,0,0,,0,5,5,4,1,,,,,,,,,,,,,,,,,,,,,,,,,,,,,,,,,,,,,,,,,,,,,,,,,,,,,,,,,
,,,,,,,,,,,,,,,,,,,,,,,,,,,,,,,,,,,,,,,,,,,5f596c23afaf421c275d4640,5ff3a402bc4c4da0edd58235,2021-01-05_00h26.03.749,Colour_Similarity_Experiment_v1,2020.1.2,Win32,60,5ff3a352adaa099f7659f8cc,,,,,,,,,,,,,,,,,,,1,FF,66,125,1,0,0,response1disk_5,6,7,1.90165,5,9,1,0,0,rectangle_8,5,9,1,0,0,,,4,5,9,1,0,0,,0,6,6,5,1,,,,,,,,,,,,,,,,,,,,,,,,,,,,,,,,,,,,,,,,,,,,,,,,,,,,,,,,,
,,,,,,,,,,,,,,,,,,,,,,,,,,,,,,,,,,,,,,,,,,,5f596c23afaf421c275d4640,5ff3a402bc4c4da0edd58235,2021-01-05_00h26.03.749,Colour_Similarity_Experiment_v1,2020.1.2,Win32,60,5ff3a352adaa099f7659f8cc,,,,,,,,,,,,,,,,,,,,PF,,,,,,,,4,4.684835,,,,,,,,,,,,,,,,,,,,,,,,,,space,3.7948,6,52,-97,1,0,0,response3disk,3,1,-21,-1,1,0,0,rectangle,-21,-1,1,0,0,,3,0,0.00137,-21,-1,1,0,0,0,0,0,26,1,,,,,,,,,,,,,,,,,,,,,
,,,,,,,,,,,,,,,,,,,,,,,,,,,,,,,,,,,,,,,,,,,5f596c23afaf421c275d4640,5ff3a402bc4c4da0edd58235,2021-01-05_00h26.03.749,Colour_Similarity_Experiment_v1,2020.1.2,Win32,60,5ff3a352adaa099f7659f8cc,,,,,,,,,,,,,,,,,,,,PF,,,,,,,,5,2.66907,,,,,,,,,,,,,,,,,,,,,,,,,,,,4,76,-33,1,0,0,response3disk,7,2,-1,7,1,0,0,rectangle,-1,7,1,0,0,,3,0,0.001045,-1,7,1,0,0,0,1,1,38,1,,,,,,,,,,,,,,,,,,,,,
,,,,,,,,,,,,,,,,,,,,,,,,,,,,,,,,,,,,,,,,,,,5f596c23afaf421c275d4640,5ff3a402bc4c4da0edd58235,2021-01-05_00h26.03.749,Colour_Similarity_Experiment_v1,2020.1.2,Win32,60,5ff3a352adaa099f7659f8cc,,,,,,,,,,,,,,,,,,,,FF,,,,,,,,2,2.66877,,,,,,,,,,,,,,,,,,,,,,,,,,,,3,-93,-52,1,0,0,response5disk,5,3,1,13,1,0,0,rectangle,1,13,1,0,0,,6,0,0.0013,1,13,1,0,0,0,2,2,101,1,,,,,,,,,,,,,,,,,,,,,
,,,,,,,,,,,,,,,,,,,,,,,,,,,,,,,,,,,,,,,,,,,5f596c23afaf421c275d4640,5ff3a402bc4c4da0edd58235,2021-01-05_00h26.03.749,Colour_Similarity_Experiment_v1,2020.1.2,Win32,60,5ff3a352adaa099f7659f8cc,,,,,,,,,,,,,,,,,,,,FF,,,,,,,,4,1.91216,,,,,,,,,,,,,,,,,,,,,,,,,,,,2,80,-100,1,0,0,response3disk,5,4,-4,2,1,0,0,rectangle,-4,2,1,0,0,,7,0,0.000565,-4,2,1,0,0,0,3,3,80,1,,,,,,,,,,,,,,,,,,,,,
,,,,,,,,,,,,,,,,,,,,,,,,,,,,,,,,,,,,,,,,,,,5f596c23afaf421c275d4640,5ff3a402bc4c4da0edd58235,2021-01-05_00h26.03.749,Colour_Similarity_Experiment_v1,2020.1.2,Win32,60,5ff3a352adaa099f7659f8cc,,,,,,,,,,,,,,,,,,,,PF,,,,,,,,0,2.15662,,,,,,,,,,,,,,,,,,,,,,,,,,,,1,-55,132,1,0,0,response7disk,1,5,1,-3,1,0,0,rectangle,-107,-69,1,0,0,,2,1,2.495815,-3,0,1,0,0,0,4,4,76,1,response5disk_3,rectangle,,,,,,,,,,,,,,,,,,,
,,,,,,,,,,,,,,,,,,,,,,,,,,,,,,,,,,,,,,,,,,,5f596c23afaf421c275d4640,5ff3a402bc4c4da0edd58235,2021-01-05_00h26.03.749,Colour_Similarity_Experiment_v1,2020.1.2,Win32,60,5ff3a352adaa099f7659f8cc,,,,,,,,,,,,,,,,,,,,PF,,,,,,,,6,2.601295,,,,,,,,,,,,,,,,,,,,,,,,,,,,2,114,60,1,0,0,response1disk,7,6,-6,-1,1,0,0,rectangle,-6,-1,1,0,0,,1,0,0.00198,-6,-1,1,0,0,0,5,5,107,1,,,,,,,,,,,,,,,,,,,,,
,,,,,,,,,,,,,,,,,,,,,,,,,,,,,,,,,,,,,,,,,,,5f596c23afaf421c275d4640,5ff3a402bc4c4da0edd58235,2021-01-05_00h26.03.749,Colour_Similarity_Experiment_v1,2020.1.2,Win32,60,5ff3a352adaa099f7659f8cc,,,,,,,,,,,,,,,,,,,,FF,,,,,,,,3,3.06522,,,,,,,,,,,,,,,,,,,,,,,,,,,,9,-48,-137,1,0,0,response5disk,5,7,4,-7,1,0,0,rectangle,4,-7,1,0,0,,5,0,0.000645,4,-7,1,0,0,0,6,6,128,1,,,,,,,,,,,,,,,,,,,,,
,,,,,,,,,,,,,,,,,,,,,,,,,,,,,,,,,,,,,,,,,,,5f596c23afaf421c275d4640,5ff3a402bc4c4da0edd58235,2021-01-05_00h26.03.749,Colour_Similarity_Experiment_v1,2020.1.2,Win32,60,5ff3a352adaa099f7659f8cc,,,,,,,,,,,,,,,,,,,,PF,,,,,,,,1,2.87208,,,,,,,,,,,,,,,,,,,,,,,,,,,,4,-125,67,1,0,0,response7disk,5,8,9,-2,1,0,0,rectangle,9,-2,1,0,0,,6,0,0.00057,9,-2,1,0,0,0,7,7,49,1,,,,,,,,,,,,,,,,,,,,,
,,,,,,,,,,,,,,,,,,,,,,,,,,,,,,,,,,,,,,,,,,,5f596c23afaf421c275d4640,5ff3a402bc4c4da0edd58235,2021-01-05_00h26.03.749,Colour_Similarity_Experiment_v1,2020.1.2,Win32,60,5ff3a352adaa099f7659f8cc,,,,,,,,,,,,,,,,,,,,FF,,,,,,,,6,1.806425,,,,,,,,,,,,,,,,,,,,,,,,,,,,5,161,64,1,0,0,response1disk,1,9,-9,6,1,0,0,rectangle,-9,6,1,0,0,,7,0,0.0007,-9,6,1,0,0,0,8,8,131,1,,,,,,,,,,,,,,,,,,,,,
,,,,,,,,,,,,,,,,,,,,,,,,,,,,,,,,,,,,,,,,,,,5f596c23afaf421c275d4640,5ff3a402bc4c4da0edd58235,2021-01-05_00h26.03.749,Colour_Similarity_Experiment_v1,2020.1.2,Win32,60,5ff3a352adaa099f7659f8cc,,,,,,,,,,,,,,,,,,,,PF,,,,,,,,0,1.564355,,,,,,,,,,,,,,,,,,,,,,,,,,,,6,-65,120,1,0,0,response7disk,6,10,2,-4,1,0,0,rectangle,2,-4,1,0,0,,6,0,0.00068,2,-4,1,0,0,0,9,9,0,1,,,,,,,,,,,,,,,,,,,,,
,,,,,,,,,,,,,,,,,,,,,,,,,,,,,,,,,,,,,,,,,,,5f596c23afaf421c275d4640,5ff3a402bc4c4da0edd58235,2021-01-05_00h26.03.749,Colour_Similarity_Experiment_v1,2020.1.2,Win32,60,5ff3a352adaa099f7659f8cc,,,,,,,,,,,,,,,,,,,,FF,,,,,,,,3,2.209205,,,,,,,,,,,,,,,,,,,,,,,,,,,,1,-30,-131,1,0,0,response5disk,9,11,15,3,1,0,0,rectangle,15,3,1,0,0,,6,0,0.000685,15,3,1,0,0,0,10,10,123,1,,,,,,,,,,,,,,,,,,,,,
,,,,,,,,,,,,,,,,,,,,,,,,,,,,,,,,,,,,,,,,,,,5f596c23afaf421c275d4640,5ff3a402bc4c4da0edd58235,2021-01-05_00h26.03.749,Colour_Similarity_Experiment_v1,2020.1.2,Win32,60,5ff3a352adaa099f7659f8cc,,,,,,,,,,,,,,,,,,,,FF,,,,,,,,5,2.025135,,,,,,,,,,,,,,,,,,,,,,,,,,,,2,144,-47,1,0,0,response3disk,9,12,-16,-2,1,0,0,rectangle,-16,-2,1,0,0,,7,0,0.00114,-16,-2,1,0,0,0,11,11,72,1,,,,,,,,,,,,,,,,,,,,,
,,,,,,,,,,,,,,,,,,,,,,,,,,,,,,,,,,,,,,,,,,,5f596c23afaf421c275d4640,5ff3a402bc4c4da0edd58235,2021-01-05_00h26.03.749,Colour_Similarity_Experiment_v1,2020.1.2,Win32,60,5ff3a352adaa099f7659f8cc,,,,,,,,,,,,,,,,,,,,FF,,,,,,,,2,2.255135,,,,,,,,,,,,,,,,,,,,,,,,,,,,4,-108,-64,1,0,0,response5disk,5,13,12,3,1,0,0,rectangle,12,3,1,0,0,,1,0,0.001095,12,3,1,0,0,0,12,12,116,1,,,,,,,,,,,,,,,,,,,,,
,,,,,,,,,,,,,,,,,,,,,,,,,,,,,,,,,,,,,,,,,,,5f596c23afaf421c275d4640,5ff3a402bc4c4da0edd58235,2021-01-05_00h26.03.749,Colour_Similarity_Experiment_v1,2020.1.2,Win32,60,5ff3a352adaa099f7659f8cc,,,,,,,,,,,,,,,,,,,,FF,,,,,,,,6,3.596575,,,,,,,,,,,,,,,,,,,,,,,,,,,,3,135,47,1,0,0,response1disk,2,14,3,-2,1,0,0,rectangle,3,-2,1,0,0,,3,0,0.00061,3,-2,1,0,0,0,13,13,93,1,,,,,,,,,,,,,,,,,,,,,
,,,,,,,,,,,,,,,,,,,,,,,,,,,,,,,,,,,,,,,,,,,5f596c23afaf421c275d4640,5ff3a402bc4c4da0edd58235,2021-01-05_00h26.03.749,Colour_Similarity_Experiment_v1,2020.1.2,Win32,60,5ff3a352adaa099f7659f8cc,,,,,,,,,,,,,,,,,,,,PF,,,,,,,,3,2.54638,,,,,,,,,,,,,,,,,,,,,,,,,,,,5,-39,-128,1,0,0,response5disk,7,15,8,-4,1,0,0,rectangle,8,-4,1,0,0,,3,0,0.00064,8,-4,1,0,0,0,14,14,146,1,,,,,,,,,,,,,,,,,,,,,
,,,,,,,,,,,,,,,,,,,,,,,,,,,,,,,,,,,,,,,,,,,5f596c23afaf421c275d4640,5ff3a402bc4c4da0edd58235,2021-01-05_00h26.03.749,Colour_Similarity_Experiment_v1,2020.1.2,Win32,60,5ff3a352adaa099f7659f8cc,,,,,,,,,,,,,,,,,,,,PF,,,,,,,,0,1.39607,,,,,,,,,,,,,,,,,,,,,,,,,,,,7,-33,113,1,0,0,response7disk,7,16,-18,0,1,0,0,rectangle,-18,0,1,0,0,,7,0,0.00106,-18,0,1,0,0,0,15,15,51,1,,,,,,,,,,,,,,,,,,,,,
,,,,,,,,,,,,,,,,,,,,,,,,,,,,,,,,,,,,,,,,,,,5f596c23afaf421c275d4640,5ff3a402bc4c4da0edd58235,2021-01-05_00h26.03.749,Colour_Similarity_Experiment_v1,2020.1.2,Win32,60,5ff3a352adaa099f7659f8cc,,,,,,,,,,,,,,,,,,,,FF,,,,,,,,3,2.10464,,,,,,,,,,,,,,,,,,,,,,,,,,,,6,-41,-129,1,0,0,response5disk,5,17,15,0,1,0,0,rectangle,15,0,1,0,0,,6,0,0.001035,15,0,1,0,0,0,16,16,126,1,,,,,,,,,,,,,,,,,,,,,
,,,,,,,,,,,,,,,,,,,,,,,,,,,,,,,,,,,,,,,,,,,5f596c23afaf421c275d4640,5ff3a402bc4c4da0edd58235,2021-01-05_00h26.03.749,Colour_Similarity_Experiment_v1,2020.1.2,Win32,60,5ff3a352adaa099f7659f8cc,,,,,,,,,,,,,,,,,,,,FF,,,,,,,,5,2.03786,,,,,,,,,,,,,,,,,,,,,,,,,,,,6,140,-55,1,0,0,response3disk,2,18,-9,-1,1,0,0,rectangle,-9,-1,1,0,0,,7,0,0.00077,-9,-1,1,0,0,0,17,17,112,1,,,,,,,,,,,,,,,,,,,,,
,,,,,,,,,,,,,,,,,,,,,,,,,,,,,,,,,,,,,,,,,,,5f596c23afaf421c275d4640,5ff3a402bc4c4da0edd58235,2021-01-05_00h26.03.749,Colour_Similarity_Experiment_v1,2020.1.2,Win32,60,5ff3a352adaa099f7659f8cc,,,,,,,,,,,,,,,,,,,,FF,,,,,,,,2,2.086615,,,,,,,,,,,,,,,,,,,,,,,,,,,,8,-127,-70,1,0,0,response5disk,9,19,8,-4,1,0,0,rectangle,8,-4,1,0,0,,6,0,0.00074,8,-4,1,0,0,0,18,18,105,1,,,,,,,,,,,,,,,,,,,,,
,,,,,,,,,,,,,,,,,,,,,,,,,,,,,,,,,,,,,,,,,,,5f596c23afaf421c275d4640,5ff3a402bc4c4da0edd58235,2021-01-05_00h26.03.749,Colour_Similarity_Experiment_v1,2020.1.2,Win32,60,5ff3a352adaa099f7659f8cc,,,,,,,,,,,,,,,,,,,,FF,,,,,,,,5,3.96652,,,,,,,,,,,,,,,,,,,,,,,,,,,,2,130,-61,1,0,0,response3disk,6,20,0,1,1,0,0,rectangle,0,1,1,0,0,,7,0,0.00061,0,1,1,0,0,0,19,19,40,1,,,,,,,,,,,,,,,,,,,,,
,,,,,,,,,,,,,,,,,,,,,,,,,,,,,,,,,,,,,,,,,,,5f596c23afaf421c275d4640,5ff3a402bc4c4da0edd58235,2021-01-05_00h26.03.749,Colour_Similarity_Experiment_v1,2020.1.2,Win32,60,5ff3a352adaa099f7659f8cc,,,,,,,,,,,,,,,,,,,,PF,,,,,,,,4,3.29126,,,,,,,,,,,,,,,,,,,,,,,,,,,,2,66,-104,1,0,0,response3disk,9,21,-18,-7,1,0,0,rectangle,-18,-7,1,0,0,,4,0,0.00079,-18,-7,1,0,0,0,20,20,39,1,,,,,,,,,,,,,,,,,,,,,
,,,,,,,,,,,,,,,,,,,,,,,,,,,,,,,,,,,,,,,,,,,5f596c23afaf421c275d4640,5ff3a402bc4c4da0edd58235,2021-01-05_00h26.03.749,Colour_Similarity_Experiment_v1,2020.1.2,Win32,60,5ff3a352adaa099f7659f8cc,,,,,,,,,,,,,,,,,,,,FF,,,,,,,,7,2.04766,,,,,,,,,,,,,,,,,,,,,,,,,,,,1,72,134,1,0,0,response1disk,3,22,3,-1,1,0,0,rectangle,3,-1,1,0,0,,1,0,0.001065,3,-1,1,0,0,0,21,21,99,1,,,,,,,,,,,,,,,,,,,,,
,,,,,,,,,,,,,,,,,,,,,,,,,,,,,,,,,,,,,,,,,,,5f596c23afaf421c275d4640,5ff3a402bc4c4da0edd58235,2021-01-05_00h26.03.749,Colour_Similarity_Experiment_v1,2020.1.2,Win32,60,5ff3a352adaa099f7659f8cc,,,,,,,,,,,,,,,,,,,,FF,,,,,,,,7,1.03163,,,,,,,,,,,,,,,,,,,,,,,,,,,,1,55,129,1,0,0,response1disk,7,23,-4,13,1,0,0,rectangle,-4,13,1,0,0,,1,0,0.00068,-4,13,1,0,0,0,22,22,137,1,,,,,,,,,,,,,,,,,,,,,
,,,,,,,,,,,,,,,,,,,,,,,,,,,,,,,,,,,,,,,,,,,5f596c23afaf421c275d4640,5ff3a402bc4c4da0edd58235,2021-01-05_00h26.03.749,Colour_Similarity_Experiment_v1,2020.1.2,Win32,60,5ff3a352adaa099f7659f8cc,,,,,,,,,,,,,,,,,,,,FF,,,,,,,,7,1.600755,,,,,,,,,,,,,,,,,,,,,,,,,,,,4,84,140,1,0,0,response1disk,8,24,2,0,1,0,0,rectangle,2,0,1,0,0,,2,0,0.000635,2,0,1,0,0,0,23,23,35,1,,,,,,,,,,,,,,,,,,,,,
,,,,,,,,,,,,,,,,,,,,,,,,,,,,,,,,,,,,,,,,,,,5f596c23afaf421c275d4640,5ff3a402bc4c4da0edd58235,2021-01-05_00h26.03.749,Colour_Similarity_Experiment_v1,2020.1.2,Win32,60,5ff3a352adaa099f7659f8cc,,,,,,,,,,,,,,,,,,,,PF,,,,,,,,0,1.470455,,,,,,,,,,,,,,,,,,,,,,,,,,,,3,-38,139,1,0,0,response7disk,4,25,8,6,1,0,0,rectangle,8,6,1,0,0,,2,0,0.001245,8,6,1,0,0,0,24,24,30,1,,,,,,,,,,,,,,,,,,,,,
,,,,,,,,,,,,,,,,,,,,,,,,,,,,,,,,,,,,,,,,,,,5f596c23afaf421c275d4640,5ff3a402bc4c4da0edd58235,2021-01-05_00h26.03.749,Colour_Similarity_Experiment_v1,2020.1.2,Win32,60,5ff3a352adaa099f7659f8cc,,,,,,,,,,,,,,,,,,,,FF,,,,,,,,3,2.328755,,,,,,,,,,,,,,,,,,,,,,,,,,,,8,-49,-130,1,0,0,response5disk,7,26,13,8,1,0,0,rectangle,13,8,1,0,0,,6,0,0.000625,13,8,1,0,0,0,25,25,86,1,,,,,,,,,,,,,,,,,,,,,
,,,,,,,,,,,,,,,,,,,,,,,,,,,,,,,,,,,,,,,,,,,5f596c23afaf421c275d4640,5ff3a402bc4c4da0edd58235,2021-01-05_00h26.03.749,Colour_Similarity_Experiment_v1,2020.1.2,Win32,60,5ff3a352adaa099f7659f8cc,,,,,,,,,,,,,,,,,,,,FF,,,,,,,,4,2.58932,,,,,,,,,,,,,,,,,,,,,,,,,,,,5,68,-100,1,0,0,response3disk,9,27,-1,2,1,0,0,rectangle,-1,2,1,0,0,,1,0,0.00061,-1,2,1,0,0,0,26,26,61,1,,,,,,,,,,,,,,,,,,,,,
,,,,,,,,,,,,,,,,,,,,,,,,,,,,,,,,,,,,,,,,,,,5f596c23afaf421c275d4640,5ff3a402bc4c4da0edd58235,2021-01-05_00h26.03.749,Colour_Similarity_Experiment_v1,2020.1.2,Win32,60,5ff3a352adaa099f7659f8cc,,,,,,,,,,,,,,,,,,,,PF,,,,,,,,5,3.652915,,,,,,,,,,,,,,,,,,,,,,,,,,,,2,109,-58,1,0,0,response3disk,3,28,-1,-4,1,0,0,rectangle,-1,-4,1,0,0,,6,0,0.00075,-1,-4,1,0,0,0,27,27,69,1,,,,,,,,,,,,,,,,,,,,,
,,,,,,,,,,,,,,,,,,,,,,,,,,,,,,,,,,,,,,,,,,,5f596c23afaf421c275d4640,5ff3a402bc4c4da0edd58235,2021-01-05_00h26.03.749,Colour_Similarity_Experiment_v1,2020.1.2,Win32,60,5ff3a352adaa099f7659f8cc,,,,,,,,,,,,,,,,,,,,FF,,,,,,,,3,2.06066,,,,,,,,,,,,,,,,,,,,,,,,,,,,6,-65,-147,1,0,0,response5disk,8,29,18,12,1,0,0,rectangle,18,12,1,0,0,,0,0,0.00067,18,12,1,0,0,0,28,28,133,1,,,,,,,,,,,,,,,,,,,,,
,,,,,,,,,,,,,,,,,,,,,,,,,,,,,,,,,,,,,,,,,,,5f596c23afaf421c275d4640,5ff3a402bc4c4da0edd58235,2021-01-05_00h26.03.749,Colour_Similarity_Experiment_v1,2020.1.2,Win32,60,5ff3a352adaa099f7659f8cc,,,,,,,,,,,,,,,,,,,,PF,,,,,,,,7,2.348985,,,,,,,,,,,,,,,,,,,,,,,,,,,,7,88,137,1,0,0,response1disk,2,30,-18,-4,1,0,0,rectangle,-18,-4,1,0,0,,1,0,0.000575,-18,-4,1,0,0,0,29,29,32,1,,,,,,,,,,,,,,,,,,,,,
,,,,,,,,,,,,,,,,,,,,,,,,,,,,,,,,,,,,,,,,,,,5f596c23afaf421c275d4640,5ff3a402bc4c4da0edd58235,2021-01-05_00h26.03.749,Colour_Similarity_Experiment_v1,2020.1.2,Win32,60,5ff3a352adaa099f7659f8cc,,,,,,,,,,,,,,,,,,,,PF,,,,,,,,5,1.90637,,,,,,,,,,,,,,,,,,,,,,,,,,,,2,132,-59,1,0,0,response3disk,6,31,-4,-5,1,0,0,rectangle,-4,-5,1,0,0,,1,0,0.000605,-4,-5,1,0,0,0,30,30,113,1,,,,,,,,,,,,,,,,,,,,,
,,,,,,,,,,,,,,,,,,,,,,,,,,,,,,,,,,,,,,,,,,,5f596c23afaf421c275d4640,5ff3a402bc4c4da0edd58235,2021-01-05_00h26.03.749,Colour_Similarity_Experiment_v1,2020.1.2,Win32,60,5ff3a352adaa099f7659f8cc,,,,,,,,,,,,,,,,,,,,FF,,,,,,,,7,1.484975,,,,,,,,,,,,,,,,,,,,,,,,,,,,4,58,124,1,0,0,response1disk,1,32,-2,-6,1,0,0,rectangle,-2,-6,1,0,0,,2,0,0.000695,-2,-6,1,0,0,0,31,31,102,1,,,,,,,,,,,,,,,,,,,,,
,,,,,,,,,,,,,,,,,,,,,,,,,,,,,,,,,,,,,,,,,,,5f596c23afaf421c275d4640,5ff3a402bc4c4da0edd58235,2021-01-05_00h26.03.749,Colour_Similarity_Experiment_v1,2020.1.2,Win32,60,5ff3a352adaa099f7659f8cc,,,,,,,,,,,,,,,,,,,,PF,,,,,,,,2,2.59098,,,,,,,,,,,,,,,,,,,,,,,,,,,,7,-118,-57,1,0,0,response5disk,6,33,-9,7,1,0,0,rectangle,-9,7,1,0,0,,6,0,0.000625,-9,7,1,0,0,0,32,32,29,1,,,,,,,,,,,,,,,,,,,,,
,,,,,,,,,,,,,,,,,,,,,,,,,,,,,,,,,,,,,,,,,,,5f596c23afaf421c275d4640,5ff3a402bc4c4da0edd58235,2021-01-05_00h26.03.749,Colour_Similarity_Experiment_v1,2020.1.2,Win32,60,5ff3a352adaa099f7659f8cc,,,,,,,,,,,,,,,,,,,,PF,,,,,,,,6,3.10313,,,,,,,,,,,,,,,,,,,,,,,,,,,,6,125,65,1,0,0,response1disk,9,34,-2,6,1,0,0,rectangle,-2,6,1,0,0,,0,0,0.000605,-2,6,1,0,0,0,33,33,45,1,,,,,,,,,,,,,,,,,,,,,
,,,,,,,,,,,,,,,,,,,,,,,,,,,,,,,,,,,,,,,,,,,5f596c23afaf421c275d4640,5ff3a402bc4c4da0edd58235,2021-01-05_00h26.03.749,Colour_Similarity_Experiment_v1,2020.1.2,Win32,60,5ff3a352adaa099f7659f8cc,,,,,,,,,,,,,,,,,,,,FF,,,,,,,,5,2.71705,,,,,,,,,,,,,,,,,,,,,,,,,,,,3,115,-43,1,0,0,response3disk,6,35,17,4,1,0,0,rectangle,17,4,1,0,0,,4,0,0.00102,17,4,1,0,0,0,34,34,95,1,,,,,,,,,,,,,,,,,,,,,
,,,,,,,,,,,,,,,,,,,,,,,,,,,,,,,,,,,,,,,,,,,5f596c23afaf421c275d4640,5ff3a402bc4c4da0edd58235,2021-01-05_00h26.03.749,Colour_Similarity_Experiment_v1,2020.1.2,Win32,60,5ff3a352adaa099f7659f8cc,,,,,,,,,,,,,,,,,,,,PF,,,,,,,,1,2.03134,,,,,,,,,,,,,,,,,,,,,,,,,,,,3,-126,57,1,0,0,response7disk,5,36,-7,-1,1,0,0,rectangle,-7,-1,1,0,0,,3,0,0.00089,-7,-1,1,0,0,0,35,35,66,1,,,,,,,,,,,,,,,,,,,,,
,,,,,,,,,,,,,,,,,,,,,,,,,,,,,,,,,,,,,,,,,,,5f596c23afaf421c275d4640,5ff3a402bc4c4da0edd58235,2021-01-05_00h26.03.749,Colour_Similarity_Experiment_v1,2020.1.2,Win32,60,5ff3a352adaa099f7659f8cc,,,,,,,,,,,,,,,,,,,,PF,,,,,,,,6,1.519935,,,,,,,,,,,,,,,,,,,,,,,,,,,,8,113,48,1,0,0,response1disk,1,37,-21,11,1,0,0,rectangle,-21,11,1,0,0,,1,0,0.0014,-21,11,1,0,0,0,36,36,57,1,,,,,,,,,,,,,,,,,,,,,
,,,,,,,,,,,,,,,,,,,,,,,,,,,,,,,,,,,,,,,,,,,5f596c23afaf421c275d4640,5ff3a402bc4c4da0edd58235,2021-01-05_00h26.03.749,Colour_Similarity_Experiment_v1,2020.1.2,Win32,60,5ff3a352adaa099f7659f8cc,,,,,,,,,,,,,,,,,,,,FF,,,,,,,,5,10.77028,,,,,,,,,,,,,,,,,,,,,,,,,,,,7,144,-27,1,0,0,response3disk,3,38,5,11,1,0,0,rectangle,5,11,1,0,0,,3,0,0.001875,5,11,1,0,0,0,37,37,73,1,,,,,,,,,,,,,,,,,,,,,
,,,,,,,,,,,,,,,,,,,,,,,,,,,,,,,,,,,,,,,,,,,5f596c23afaf421c275d4640,5ff3a402bc4c4da0edd58235,2021-01-05_00h26.03.749,Colour_Similarity_Experiment_v1,2020.1.2,Win32,60,5ff3a352adaa099f7659f8cc,,,,,,,,,,,,,,,,,,,,FF,,,,,,,,0,4.75385,,,,,,,,,,,,,,,,,,,,,,,,,,,,7,-54,139,1,0,0,response7disk,7,39,10,1,1,0,0,rectangle,10,1,1,0,0,,7,0,0.001075,10,1,1,0,0,0,38,38,34,1,,,,,,,,,,,,,,,,,,,,,
,,,,,,,,,,,,,,,,,,,,,,,,,,,,,,,,,,,,,,,,,,,5f596c23afaf421c275d4640,5ff3a402bc4c4da0edd58235,2021-01-05_00h26.03.749,Colour_Similarity_Experiment_v1,2020.1.2,Win32,60,5ff3a352adaa099f7659f8cc,,,,,,,,,,,,,,,,,,,,PF,,,,,,,,6,7.039715,,,,,,,,,,,,,,,,,,,,,,,,,,,,4,111,62,1,0,0,response1disk,9,40,1,-12,1,0,0,rectangle,1,-12,1,0,0,,7,0,0.001115,1,-12,1,0,0,0,39,39,75,1,,,,,,,,,,,,,,,,,,,,,
,,,,,,,,,,,,,,,,,,,,,,,,,,,,,,,,,,,,,,,,,,,5f596c23afaf421c275d4640,5ff3a402bc4c4da0edd58235,2021-01-05_00h26.03.749,Colour_Similarity_Experiment_v1,2020.1.2,Win32,60,5ff3a352adaa099f7659f8cc,,,,,,,,,,,,,,,,,,,,FF,,,,,,,,6,2.658385,,,,,,,,,,,,,,,,,,,,,,,,,,,,7,128,41,1,0,0,response1disk,4,41,5,-5,1,0,0,rectangle,5,-5,1,0,0,,2,0,0.000585,5,-5,1,0,0,0,40,40,158,1,,,,,,,,,,,,,,,,,,,,,
,,,,,,,,,,,,,,,,,,,,,,,,,,,,,,,,,,,,,,,,,,,5f596c23afaf421c275d4640,5ff3a402bc4c4da0edd58235,2021-01-05_00h26.03.749,Colour_Similarity_Experiment_v1,2020.1.2,Win32,60,5ff3a352adaa099f7659f8cc,,,,,,,,,,,,,,,,,,,,PF,,,,,,,,6,1.795435,,,,,,,,,,,,,,,,,,,,,,,,,,,,6,121,50,1,0,0,response1disk,4,42,-6,4,1,0,0,rectangle,-6,4,1,0,0,,5,0,0.00056,-6,4,1,0,0,0,41,41,33,1,,,,,,,,,,,,,,,,,,,,,
,,,,,,,,,,,,,,,,,,,,,,,,,,,,,,,,,,,,,,,,,,,5f596c23afaf421c275d4640,5ff3a402bc4c4da0edd58235,2021-01-05_00h26.03.749,Colour_Similarity_Experiment_v1,2020.1.2,Win32,60,5ff3a352adaa099f7659f8cc,,,,,,,,,,,,,,,,,,,,PF,,,,,,,,6,1.804075,,,,,,,,,,,,,,,,,,,,,,,,,,,,6,122,49,1,0,0,response1disk,2,43,-2,6,1,0,0,rectangle,-2,6,1,0,0,,4,0,0.000755,-2,6,1,0,0,0,42,42,130,1,,,,,,,,,,,,,,,,,,,,,
,,,,,,,,,,,,,,,,,,,,,,,,,,,,,,,,,,,,,,,,,,,5f596c23afaf421c275d4640,5ff3a402bc4c4da0edd58235,2021-01-05_00h26.03.749,Colour_Similarity_Experiment_v1,2020.1.2,Win32,60,5ff3a352adaa099f7659f8cc,,,,,,,,,,,,,,,,,,,,PF,,,,,,,,5,2.401785,,,,,,,,,,,,,,,,,,,,,,,,,,,,9,112,-43,1,0,0,response3disk,7,44,10,-8,1,0,0,rectangle,10,-8,1,0,0,,1,0,0.00078,10,-8,1,0,0,0,43,43,121,1,,,,,,,,,,,,,,,,,,,,,
,,,,,,,,,,,,,,,,,,,,,,,,,,,,,,,,,,,,,,,,,,,5f596c23afaf421c275d4640,5ff3a402bc4c4da0edd58235,2021-01-05_00h26.03.749,Colour_Similarity_Experiment_v1,2020.1.2,Win32,60,5ff3a352adaa099f7659f8cc,,,,,,,,,,,,,,,,,,,,FF,,,,,,,,0,1.408055,,,,,,,,,,,,,,,,,,,,,,,,,,,,1,-62,148,1,0,0,response7disk,1,45,-19,7,1,0,0,rectangle,-19,7,1,0,0,,6,0,0.001095,-19,7,1,0,0,0,44,44,151,1,,,,,,,,,,,,,,,,,,,,,
,,,,,,,,,,,,,,,,,,,,,,,,,,,,,,,,,,,,,,,,,,,5f596c23afaf421c275d4640,5ff3a402bc4c4da0edd58235,2021-01-05_00h26.03.749,Colour_Similarity_Experiment_v1,2020.1.2,Win32,60,5ff3a352adaa099f7659f8cc,,,,,,,,,,,,,,,,,,,,FF,,,,,,,,5,2.176995,,,,,,,,,,,,,,,,,,,,,,,,,,,,6,119,-55,1,0,0,response3disk,9,46,-4,-12,1,0,0,rectangle,-147,52,1,0,0,1,1,1,2.45586,5,0,1,0,0,0,45,45,160,1,response7disk_3,rectangle,,,,,,,,,,,,,,,,,,,
,,,,,,,,,,,,,,,,,,,,,,,,,,,,,,,,,,,,,,,,,,,5f596c23afaf421c275d4640,5ff3a402bc4c4da0edd58235,2021-01-05_00h26.03.749,Colour_Similarity_Experiment_v1,2020.1.2,Win32,60,5ff3a352adaa099f7659f8cc,,,,,,,,,,,,,,,,,,,,FF,,,,,,,,7,2.88254,,,,,,,,,,,,,,,,,,,,,,,,,,,,3,61,122,1,0,0,response1disk,8,47,4,-2,1,0,0,rectangle,4,-2,1,0,0,1,5,0,0.0011,4,-2,1,0,0,0,46,46,44,1,,,,,,,,,,,,,,,,,,,,,
,,,,,,,,,,,,,,,,,,,,,,,,,,,,,,,,,,,,,,,,,,,5f596c23afaf421c275d4640,5ff3a402bc4c4da0edd58235,2021-01-05_00h26.03.749,Colour_Similarity_Experiment_v1,2020.1.2,Win32,60,5ff3a352adaa099f7659f8cc,,,,,,,,,,,,,,,,,,,,PF,,,,,,,,6,2.27721,,,,,,,,,,,,,,,,,,,,,,,,,,,,8,123,62,1,0,0,response1disk,2,48,8,-5,1,0,0,rectangle,8,-5,1,0,0,1,5,0,0.00074,8,-5,1,0,0,0,47,47,83,1,,,,,,,,,,,,,,,,,,,,,
,,,,,,,,,,,,,,,,,,,,,,,,,,,,,,,,,,,,,,,,,,,5f596c23afaf421c275d4640,5ff3a402bc4c4da0edd58235,2021-01-05_00h26.03.749,Colour_Similarity_Experiment_v1,2020.1.2,Win32,60,5ff3a352adaa099f7659f8cc,,,,,,,,,,,,,,,,,,,,PF,,,,,,,,0,1.218755,,,,,,,,,,,,,,,,,,,,,,,,,,,,8,-35,121,1,0,0,response7disk,8,49,13,3,1,0,0,rectangle,13,3,1,0,0,1,6,0,0.001035,13,3,1,0,0,0,48,48,153,1,,,,,,,,,,,,,,,,,,,,,
,,,,,,,,,,,,,,,,,,,,,,,,,,,,,,,,,,,,,,,,,,,5f596c23afaf421c275d4640,5ff3a402bc4c4da0edd58235,2021-01-05_00h26.03.749,Colour_Similarity_Experiment_v1,2020.1.2,Win32,60,5ff3a352adaa099f7659f8cc,,,,,,,,,,,,,,,,,,,,PF,,,,,,,,5,2.704805,,,,,,,,,,,,,,,,,,,,,,,,,,,,7,119,-43,1,0,0,response3disk,3,50,-1,0,1,0,0,rectangle,-1,0,1,0,0,1,1,0,0.001485,-1,0,1,0,0,0,49,49,81,1,,,,,,,,,,,,,,,,,,,,,
,,,,,,,,,,,,,,,,,,,,,,,,,,,,,,,,,,,,,,,,,,,5f596c23afaf421c275d4640,5ff3a402bc4c4da0edd58235,2021-01-05_00h26.03.749,Colour_Similarity_Experiment_v1,2020.1.2,Win32,60,5ff3a352adaa099f7659f8cc,,,,,,,,,,,,,,,,,,,,FF,,,,,,,,7,4.82781,,,,,,,,,,,,,,,,,,,,,,,,,,,,2,60,140,1,0,0,response1disk,3,51,7,-2,1,0,0,rectangle,-100,-45,1,0,0,1,2,1,1.872185,9,2,1,0,0,0,50,50,104,1,response5disk_3,rectangle,,,,,,,,,,,,,,,,,,,
,,,,,,,,,,,,,,,,,,,,,,,,,,,,,,,,,,,,,,,,,,,5f596c23afaf421c275d4640,5ff3a402bc4c4da0edd58235,2021-01-05_00h26.03.749,Colour_Similarity_Experiment_v1,2020.1.2,Win32,60,5ff3a352adaa099f7659f8cc,,,,,,,,,,,,,,,,,,,,FF,,,,,,,,6,2.20784,,,,,,,,,,,,,,,,,,,,,,,,,,,,9,149,50,1,0,0,response1disk,2,52,-5,7,1,0,0,rectangle,111,57,1,0,0,6,5,1,1.97335,2,-2,1,0,0,0,51,51,11,1,response1disk_3,rectangle,,,,,,,,,,,,,,,,,,,
,,,,,,,,,,,,,,,,,,,,,,,,,,,,,,,,,,,,,,,,,,,5f596c23afaf421c275d4640,5ff3a402bc4c4da0edd58235,2021-01-05_00h26.03.749,Colour_Similarity_Experiment_v1,2020.1.2,Win32,60,5ff3a352adaa099f7659f8cc,,,,,,,,,,,,,,,,,,,,FF,,,,,,,,2,1.78714,,,,,,,,,,,,,,,,,,,,,,,,,,,,3,-111,-73,1,0,0,response5disk,4,53,0,-9,1,0,0,rectangle,0,-9,1,0,0,6,0,0,0.001075,0,-9,1,0,0,0,52,52,110,1,,,,,,,,,,,,,,,,,,,,,
,,,,,,,,,,,,,,,,,,,,,,,,,,,,,,,,,,,,,,,,,,,5f596c23afaf421c275d4640,5ff3a402bc4c4da0edd58235,2021-01-05_00h26.03.749,Colour_Similarity_Experiment_v1,2020.1.2,Win32,60,5ff3a352adaa099f7659f8cc,,,,,,,,,,,,,,,,,,,,FF,,,,,,,,0,3.375905,,,,,,,,,,,,,,,,,,,,,,,,,,,,5,-55,130,1,0,0,response7disk,5,54,-1,1,1,0,0,rectangle,-1,1,1,0,0,6,0,0,0.0006,-1,1,1,0,0,0,53,53,19,1,,,,,,,,,,,,,,,,,,,,,
,,,,,,,,,,,,,,,,,,,,,,,,,,,,,,,,,,,,,,,,,,,5f596c23afaf421c275d4640,5ff3a402bc4c4da0edd58235,2021-01-05_00h26.03.749,Colour_Similarity_Experiment_v1,2020.1.2,Win32,60,5ff3a352adaa099f7659f8cc,,,,,,,,,,,,,,,,,,,,FF,,,,,,,,6,1.695845,,,,,,,,,,,,,,,,,,,,,,,,,,,,7,116,80,1,0,0,response1disk,9,55,-2,-5,1,0,0,rectangle,-2,-5,1,0,0,6,2,0,0.000565,-2,-5,1,0,0,0,54,54,155,1,,,,,,,,,,,,,,,,,,,,,
,,,,,,,,,,,,,,,,,,,,,,,,,,,,,,,,,,,,,,,,,,,5f596c23afaf421c275d4640,5ff3a402bc4c4da0edd58235,2021-01-05_00h26.03.749,Colour_Similarity_Experiment_v1,2020.1.2,Win32,60,5ff3a352adaa099f7659f8cc,,,,,,,,,,,,,,,,,,,,FF,,,,,,,,5,1.95999,,,,,,,,,,,,,,,,,,,,,,,,,,,,3,128,-53,1,0,0,response3disk,9,56,1,-7,1,0,0,rectangle,1,-7,1,0,0,6,4,0,0.0006,1,-7,1,0,0,0,55,55,143,1,,,,,,,,,,,,,,,,,,,,,
,,,,,,,,,,,,,,,,,,,,,,,,,,,,,,,,,,,,,,,,,,,5f596c23afaf421c275d4640,5ff3a402bc4c4da0edd58235,2021-01-05_00h26.03.749,Colour_Similarity_Experiment_v1,2020.1.2,Win32,60,5ff3a352adaa099f7659f8cc,,,,,,,,,,,,,,,,,,,,PF,,,,,,,,6,1.984995,,,,,,,,,,,,,,,,,,,,,,,,,,,,1,112,43,1,0,0,response1disk,5,57,-5,-3,1,0,0,rectangle,-5,-3,1,0,0,6,4,0,0.000595,-5,-3,1,0,0,0,56,56,28,1,,,,,,,,,,,,,,,,,,,,,
,,,,,,,,,,,,,,,,,,,,,,,,,,,,,,,,,,,,,,,,,,,5f596c23afaf421c275d4640,5ff3a402bc4c4da0edd58235,2021-01-05_00h26.03.749,Colour_Similarity_Experiment_v1,2020.1.2,Win32,60,5ff3a352adaa099f7659f8cc,,,,,,,,,,,,,,,,,,,,FF,,,,,,,,3,2.298615,,,,,,,,,,,,,,,,,,,,,,,,,,,,5,-49,-127,1,0,0,response5disk,7,58,-2,1,1,0,0,rectangle,-2,1,1,0,0,6,0,0,0.00062,-2,1,1,0,0,0,57,57,7,1,,,,,,,,,,,,,,,,,,,,,
,,,,,,,,,,,,,,,,,,,,,,,,,,,,,,,,,,,,,,,,,,,5f596c23afaf421c275d4640,5ff3a402bc4c4da0edd58235,2021-01-05_00h26.03.749,Colour_Similarity_Experiment_v1,2020.1.2,Win32,60,5ff3a352adaa099f7659f8cc,,,,,,,,,,,,,,,,,,,,FF,,,,,,,,6,1.79274,,,,,,,,,,,,,,,,,,,,,,,,,,,,9,117,63,1,0,0,response1disk,4,59,-1,9,1,0,0,rectangle,-1,9,1,0,0,6,5,0,0.00056,-1,9,1,0,0,0,58,58,60,1,,,,,,,,,,,,,,,,,,,,,
,,,,,,,,,,,,,,,,,,,,,,,,,,,,,,,,,,,,,,,,,,,5f596c23afaf421c275d4640,5ff3a402bc4c4da0edd58235,2021-01-05_00h26.03.749,Colour_Similarity_Experiment_v1,2020.1.2,Win32,60,5ff3a352adaa099f7659f8cc,,,,,,,,,,,,,,,,,,,,FF,,,,,,,,2,2.00361,,,,,,,,,,,,,,,,,,,,,,,,,,,,9,-112,-64,1,0,0,response5disk,8,60,10,-3,1,0,0,rectangle,10,-3,1,0,0,6,2,0,0.000545,10,-3,1,0,0,0,59,59,6,1,,,,,,,,,,,,,,,,,,,,,
,,,,,,,,,,,,,,,,,,,,,,,,,,,,,,,,,,,,,,,,,,,5f596c23afaf421c275d4640,5ff3a402bc4c4da0edd58235,2021-01-05_00h26.03.749,Colour_Similarity_Experiment_v1,2020.1.2,Win32,60,5ff3a352adaa099f7659f8cc,,,,,,,,,,,,,,,,,,,,PF,,,,,,,,6,1.696845,,,,,,,,,,,,,,,,,,,,,,,,,,,,1,143,67,1,0,0,response1disk,6,61,-42,-2,1,0,0,rectangle,-42,-2,1,0,0,6,3,0,0.000565,-42,-2,1,0,0,0,60,60,144,1,,,,,,,,,,,,,,,,,,,,,
,,,,,,,,,,,,,,,,,,,,,,,,,,,,,,,,,,,,,,,,,,,5f596c23afaf421c275d4640,5ff3a402bc4c4da0edd58235,2021-01-05_00h26.03.749,Colour_Similarity_Experiment_v1,2020.1.2,Win32,60,5ff3a352adaa099f7659f8cc,,,,,,,,,,,,,,,,,,,,FF,,,,,,,,0,2.615455,,,,,,,,,,,,,,,,,,,,,,,,,,,,8,-61,114,1,0,0,response7disk,8,62,11,-1,1,0,0,rectangle,11,-1,1,0,0,6,7,0,0.00072,11,-1,1,0,0,0,61,61,48,1,,,,,,,,,,,,,,,,,,,,,
,,,,,,,,,,,,,,,,,,,,,,,,,,,,,,,,,,,,,,,,,,,5f596c23afaf421c275d4640,5ff3a402bc4c4da0edd58235,2021-01-05_00h26.03.749,Colour_Similarity_Experiment_v1,2020.1.2,Win32,60,5ff3a352adaa099f7659f8cc,,,,,,,,,,,,,,,,,,,,FF,,,,,,,,6,2.127705,,,,,,,,,,,,,,,,,,,,,,,,,,,,1,119,52,1,0,0,response1disk,8,63,-1,-7,1,0,0,rectangle,-1,-7,1,0,0,6,6,0,0.000745,-1,-7,1,0,0,0,62,62,27,1,,,,,,,,,,,,,,,,,,,,,
,,,,,,,,,,,,,,,,,,,,,,,,,,,,,,,,,,,,,,,,,,,5f596c23afaf421c275d4640,5ff3a402bc4c4da0edd58235,2021-01-05_00h26.03.749,Colour_Similarity_Experiment_v1,2020.1.2,Win32,60,5ff3a352adaa099f7659f8cc,,,,,,,,,,,,,,,,,,,,PF,,,,,,,,2,1.916755,,,,,,,,,,,,,,,,,,,,,,,,,,,,8,-123,-63,1,0,0,response5disk,9,64,7,-3,1,0,0,rectangle,7,-3,1,0,0,6,6,0,0.000535,7,-3,1,0,0,0,63,63,42,1,,,,,,,,,,,,,,,,,,,,,
,,,,,,,,,,,,,,,,,,,,,,,,,,,,,,,,,,,,,,,,,,,5f596c23afaf421c275d4640,5ff3a402bc4c4da0edd58235,2021-01-05_00h26.03.749,Colour_Similarity_Experiment_v1,2020.1.2,Win32,60,5ff3a352adaa099f7659f8cc,,,,,,,,,,,,,,,,,,,,PF,,,,,,,,3,1.80633,,,,,,,,,,,,,,,,,,,,,,,,,,,,6,-55,-119,1,0,0,response5disk,7,65,2,-19,1,0,0,rectangle,2,-19,1,0,0,6,0,0,0.00122,2,-19,1,0,0,0,64,64,50,1,,,,,,,,,,,,,,,,,,,,,
,,,,,,,,,,,,,,,,,,,,,,,,,,,,,,,,,,,,,,,,,,,5f596c23afaf421c275d4640,5ff3a402bc4c4da0edd58235,2021-01-05_00h26.03.749,Colour_Similarity_Experiment_v1,2020.1.2,Win32,60,5ff3a352adaa099f7659f8cc,,,,,,,,,,,,,,,,,,,,PF,,,,,,,,7,1.601145,,,,,,,,,,,,,,,,,,,,,,,,,,,,1,50,130,1,0,0,response1disk,4,66,4,0,1,0,0,rectangle,4,0,1,0,0,6,2,0,0.000535,4,0,1,0,0,0,65,65,139,1,,,,,,,,,,,,,,,,,,,,,
,,,,,,,,,,,,,,,,,,,,,,,,,,,,,,,,,,,,,,,,,,,5f596c23afaf421c275d4640,5ff3a402bc4c4da0edd58235,2021-01-05_00h26.03.749,Colour_Similarity_Experiment_v1,2020.1.2,Win32,60,5ff3a352adaa099f7659f8cc,,,,,,,,,,,,,,,,,,,,PF,,,,,,,,6,1.97133,,,,,,,,,,,,,,,,,,,,,,,,,,,,1,138,79,1,0,0,response1disk,8,67,-5,7,1,0,0,rectangle,-5,7,1,0,0,6,7,0,0.00179,-5,7,1,0,0,0,66,66,65,1,,,,,,,,,,,,,,,,,,,,,
,,,,,,,,,,,,,,,,,,,,,,,,,,,,,,,,,,,,,,,,,,,5f596c23afaf421c275d4640,5ff3a402bc4c4da0edd58235,2021-01-05_00h26.03.749,Colour_Similarity_Experiment_v1,2020.1.2,Win32,60,5ff3a352adaa099f7659f8cc,,,,,,,,,,,,,,,,,,,,PF,,,,,,,,4,3.3986,,,,,,,,,,,,,,,,,,,,,,,,,,,,7,40,-137,1,0,0,response3disk,5,68,-14,2,1,0,0,rectangle,-14,2,1,0,0,6,5,0,0.00082,-14,2,1,0,0,0,67,67,92,1,,,,,,,,,,,,,,,,,,,,,
,,,,,,,,,,,,,,,,,,,,,,,,,,,,,,,,,,,,,,,,,,,5f596c23afaf421c275d4640,5ff3a402bc4c4da0edd58235,2021-01-05_00h26.03.749,Colour_Similarity_Experiment_v1,2020.1.2,Win32,60,5ff3a352adaa099f7659f8cc,,,,,,,,,,,,,,,,,,,,PF,,,,,,,,7,1.41845,,,,,,,,,,,,,,,,,,,,,,,,,,,,8,47,100,1,0,0,response1disk,4,69,4,6,1,0,0,rectangle,4,6,1,0,0,6,5,0,0.00056,4,6,1,0,0,0,68,68,78,1,,,,,,,,,,,,,,,,,,,,,
,,,,,,,,,,,,,,,,,,,,,,,,,,,,,,,,,,,,,,,,,,,5f596c23afaf421c275d4640,5ff3a402bc4c4da0edd58235,2021-01-05_00h26.03.749,Colour_Similarity_Experiment_v1,2020.1.2,Win32,60,5ff3a352adaa099f7659f8cc,,,,,,,,,,,,,,,,,,,,FF,,,,,,,,3,1.815965,,,,,,,,,,,,,,,,,,,,,,,,,,,,7,-38,-135,1,0,0,response5disk,5,70,-2,0,1,0,0,rectangle,-2,0,1,0,0,6,2,0,0.000725,-2,0,1,0,0,0,69,69,156,1,,,,,,,,,,,,,,,,,,,,,
,,,,,,,,,,,,,,,,,,,,,,,,,,,,,,,,,,,,,,,,,,,5f596c23afaf421c275d4640,5ff3a402bc4c4da0edd58235,2021-01-05_00h26.03.749,Colour_Similarity_Experiment_v1,2020.1.2,Win32,60,5ff3a352adaa099f7659f8cc,,,,,,,,,,,,,,,,,,,,PF,,,,,,,,7,1.34687,,,,,,,,,,,,,,,,,,,,,,,,,,,,4,64,145,1,0,0,response1disk,1,71,-13,9,1,0,0,rectangle,-13,9,1,0,0,6,5,0,0.00057,-13,9,1,0,0,0,70,70,115,1,,,,,,,,,,,,,,,,,,,,,
,,,,,,,,,,,,,,,,,,,,,,,,,,,,,,,,,,,,,,,,,,,5f596c23afaf421c275d4640,5ff3a402bc4c4da0edd58235,2021-01-05_00h26.03.749,Colour_Similarity_Experiment_v1,2020.1.2,Win32,60,5ff3a352adaa099f7659f8cc,,,,,,,,,,,,,,,,,,,,FF,,,,,,,,6,3.244255,,,,,,,,,,,,,,,,,,,,,,,,,,,,4,120,48,1,0,0,response1disk,2,72,20,1,1,0,0,rectangle,20,1,1,0,0,6,4,0,0.00083,20,1,1,0,0,0,71,71,13,1,,,,,,,,,,,,,,,,,,,,,
,,,,,,,,,,,,,,,,,,,,,,,,,,,,,,,,,,,,,,,,,,,5f596c23afaf421c275d4640,5ff3a402bc4c4da0edd58235,2021-01-05_00h26.03.749,Colour_Similarity_Experiment_v1,2020.1.2,Win32,60,5ff3a352adaa099f7659f8cc,,,,,,,,,,,,,,,,,,,,FF,,,,,,,,7,1.204705,,,,,,,,,,,,,,,,,,,,,,,,,,,,8,56,119,1,0,0,response1disk,2,73,-16,-3,1,0,0,rectangle,-16,-3,1,0,0,6,6,0,0.00065,-16,-3,1,0,0,0,72,72,22,1,,,,,,,,,,,,,,,,,,,,,
,,,,,,,,,,,,,,,,,,,,,,,,,,,,,,,,,,,,,,,,,,,5f596c23afaf421c275d4640,5ff3a402bc4c4da0edd58235,2021-01-05_00h26.03.749,Colour_Similarity_Experiment_v1,2020.1.2,Win32,60,5ff3a352adaa099f7659f8cc,,,,,,,,,,,,,,,,,,,,PF,,,,,,,,0,1.719545,,,,,,,,,,,,,,,,,,,,,,,,,,,,3,-69,116,1,0,0,response7disk,3,74,1,0,1,0,0,rectangle,1,0,1,0,0,6,0,0,0.000815,1,0,1,0,0,0,73,73,4,1,,,,,,,,,,,,,,,,,,,,,
,,,,,,,,,,,,,,,,,,,,,,,,,,,,,,,,,,,,,,,,,,,5f596c23afaf421c275d4640,5ff3a402bc4c4da0edd58235,2021-01-05_00h26.03.749,Colour_Similarity_Experiment_v1,2020.1.2,Win32,60,5ff3a352adaa099f7659f8cc,,,,,,,,,,,,,,,,,,,,PF,,,,,,,,4,2.78968,,,,,,,,,,,,,,,,,,,,,,,,,,,,8,46,-131,1,0,0,response3disk,5,75,1,7,1,0,0,rectangle,1,7,1,0,0,6,3,0,0.00067,1,7,1,0,0,0,74,74,98,1,,,,,,,,,,,,,,,,,,,,,
,,,,,,,,,,,,,,,,,,,,,,,,,,,,,,,,,,,,,,,,,,,5f596c23afaf421c275d4640,5ff3a402bc4c4da0edd58235,2021-01-05_00h26.03.749,Colour_Similarity_Experiment_v1,2020.1.2,Win32,60,5ff3a352adaa099f7659f8cc,,,,,,,,,,,,,,,,,,,,FF,,,,,,,,4,1.86607,,,,,,,,,,,,,,,,,,,,,,,,,,,,5,66,-108,1,0,0,response3disk,6,76,-13,4,1,0,0,rectangle,-13,4,1,0,0,6,7,0,0.00065,-13,4,1,0,0,0,75,75,12,1,,,,,,,,,,,,,,,,,,,,,
,,,,,,,,,,,,,,,,,,,,,,,,,,,,,,,,,,,,,,,,,,,5f596c23afaf421c275d4640,5ff3a402bc4c4da0edd58235,2021-01-05_00h26.03.749,Colour_Similarity_Experiment_v1,2020.1.2,Win32,60,5ff3a352adaa099f7659f8cc,,,,,,,,,,,,,,,,,,,,PF,,,,,,,,0,1.17621,,,,,,,,,,,,,,,,,,,,,,,,,,,,4,-43,116,1,0,0,response7disk,4,77,-4,-16,1,0,0,rectangle,-4,-16,1,0,0,6,3,0,0.000655,-4,-16,1,0,0,0,76,76,70,1,,,,,,,,,,,,,,,,,,,,,
,,,,,,,,,,,,,,,,,,,,,,,,,,,,,,,,,,,,,,,,,,,5f596c23afaf421c275d4640,5ff3a402bc4c4da0edd58235,2021-01-05_00h26.03.749,Colour_Similarity_Experiment_v1,2020.1.2,Win32,60,5ff3a352adaa099f7659f8cc,,,,,,,,,,,,,,,,,,,,PF,,,,,,,,7,2.261085,,,,,,,,,,,,,,,,,,,,,,,,,,,,9,84,117,1,0,0,response1disk,4,78,12,0,1,0,0,rectangle,12,0,1,0,0,6,2,0,0.00058,12,0,1,0,0,0,77,77,114,1,,,,,,,,,,,,,,,,,,,,,
,,,,,,,,,,,,,,,,,,,,,,,,,,,,,,,,,,,,,,,,,,,5f596c23afaf421c275d4640,5ff3a402bc4c4da0edd58235,2021-01-05_00h26.03.749,Colour_Similarity_Experiment_v1,2020.1.2,Win32,60,5ff3a352adaa099f7659f8cc,,,,,,,,,,,,,,,,,,,,PF,,,,,,,,3,2.12192,,,,,,,,,,,,,,,,,,,,,,,,,,,,5,-35,-135,1,0,0,response5disk,4,79,11,-9,1,0,0,rectangle,11,-9,1,0,0,6,1,0,0.00061,11,-9,1,0,0,0,78,78,54,1,,,,,,,,,,,,,,,,,,,,,
,,,,,,,,,,,,,,,,,,,,,,,,,,,,,,,,,,,,,,,,,,,5f596c23afaf421c275d4640,5ff3a402bc4c4da0edd58235,2021-01-05_00h26.03.749,Colour_Similarity_Experiment_v1,2020.1.2,Win32,60,5ff3a352adaa099f7659f8cc,,,,,,,,,,,,,,,,,,,,PF,,,,,,,,7,1.42034,,,,,,,,,,,,,,,,,,,,,,,,,,,,3,50,127,1,0,0,response1disk,1,80,-15,5,1,0,0,rectangle,-15,5,1,0,0,6,7,0,0.000795,-15,5,1,0,0,0,79,79,96,1,,,,,,,,,,,,,,,,,,,,,
,,,,,,,,,,,,,,,,,,,,,,,,,,,,,,,,,,,,,,,,,,,5f596c23afaf421c275d4640,5ff3a402bc4c4da0edd58235,2021-01-05_00h26.03.749,Colour_Similarity_Experiment_v1,2020.1.2,Win32,60,5ff3a352adaa099f7659f8cc,,,,,,,,,,,,,,,,,,,,PF,,,,,,,,7,1.58301,,,,,,,,,,,,,,,,,,,,,,,,,,,,7,62,114,1,0,0,response1disk,1,81,-1,1,1,0,0,rectangle,-1,1,1,0,0,6,2,0,0.000675,-1,1,1,0,0,0,80,80,53,1,,,,,,,,,,,,,,,,,,,,,
,,,,,,,,,,,,,,,,,,,,,,,,,,,,,,,,,,,,,,,,,,,5f596c23afaf421c275d4640,5ff3a402bc4c4da0edd58235,2021-01-05_00h26.03.749,Colour_Similarity_Experiment_v1,2020.1.2,Win32,60,5ff3a352adaa099f7659f8cc,,,,,,,,,,,,,,,,,,,,FF,,,,,,,,5,2.11932,,,,,,,,,,,,,,,,,,,,,,,,,,,,1,125,-60,1,0,0,response3disk,2,82,18,7,1,0,0,rectangle,18,7,1,0,0,6,0,0,0.00074,18,7,1,0,0,0,81,81,2,1,,,,,,,,,,,,,,,,,,,,,
,,,,,,,,,,,,,,,,,,,,,,,,,,,,,,,,,,,,,,,,,,,5f596c23afaf421c275d4640,5ff3a402bc4c4da0edd58235,2021-01-05_00h26.03.749,Colour_Similarity_Experiment_v1,2020.1.2,Win32,60,5ff3a352adaa099f7659f8cc,,,,,,,,,,,,,,,,,,,,FF,,,,,,,,7,1.555205,,,,,,,,,,,,,,,,,,,,,,,,,,,,4,47,117,1,0,0,response1disk,6,83,-4,-4,1,0,0,rectangle,-4,-4,1,0,0,6,0,0,0.000735,-4,-4,1,0,0,0,82,82,122,1,,,,,,,,,,,,,,,,,,,,,
,,,,,,,,,,,,,,,,,,,,,,,,,,,,,,,,,,,,,,,,,,,5f596c23afaf421c275d4640,5ff3a402bc4c4da0edd58235,2021-01-05_00h26.03.749,Colour_Similarity_Experiment_v1,2020.1.2,Win32,60,5ff3a352adaa099f7659f8cc,,,,,,,,,,,,,,,,,,,,FF,,,,,,,,0,2.304245,,,,,,,,,,,,,,,,,,,,,,,,,,,,3,-44,138,1,0,0,response7disk,3,84,-5,5,1,0,0,rectangle,-5,5,1,0,0,6,4,0,0.002125,-5,5,1,0,0,0,83,83,68,1,,,,,,,,,,,,,,,,,,,,,
,,,,,,,,,,,,,,,,,,,,,,,,,,,,,,,,,,,,,,,,,,,5f596c23afaf421c275d4640,5ff3a402bc4c4da0edd58235,2021-01-05_00h26.03.749,Colour_Similarity_Experiment_v1,2020.1.2,Win32,60,5ff3a352adaa099f7659f8cc,,,,,,,,,,,,,,,,,,,,PF,,,,,,,,2,2.28477,,,,,,,,,,,,,,,,,,,,,,,,,,,,9,-95,-61,1,0,0,response5disk,6,85,11,6,1,0,0,rectangle,11,6,1,0,0,6,4,0,0.00055,11,6,1,0,0,0,84,84,148,1,,,,,,,,,,,,,,,,,,,,,
,,,,,,,,,,,,,,,,,,,,,,,,,,,,,,,,,,,,,,,,,,,5f596c23afaf421c275d4640,5ff3a402bc4c4da0edd58235,2021-01-05_00h26.03.749,Colour_Similarity_Experiment_v1,2020.1.2,Win32,60,5ff3a352adaa099f7659f8cc,,,,,,,,,,,,,,,,,,,,PF,,,,,,,,5,2.523725,,,,,,,,,,,,,,,,,,,,,,,,,,,,1,122,-41,1,0,0,response3disk,2,86,-2,-6,1,0,0,rectangle,-2,-6,1,0,0,6,3,0,0.0009,-2,-6,1,0,0,0,85,85,24,1,,,,,,,,,,,,,,,,,,,,,
,,,,,,,,,,,,,,,,,,,,,,,,,,,,,,,,,,,,,,,,,,,5f596c23afaf421c275d4640,5ff3a402bc4c4da0edd58235,2021-01-05_00h26.03.749,Colour_Similarity_Experiment_v1,2020.1.2,Win32,60,5ff3a352adaa099f7659f8cc,,,,,,,,,,,,,,,,,,,,FF,,,,,,,,7,2.411705,,,,,,,,,,,,,,,,,,,,,,,,,,,,9,32,115,1,0,0,response1disk,3,87,6,12,1,0,0,rectangle,6,12,1,0,0,6,0,0,0.001015,6,12,1,0,0,0,86,86,141,1,,,,,,,,,,,,,,,,,,,,,
,,,,,,,,,,,,,,,,,,,,,,,,,,,,,,,,,,,,,,,,,,,5f596c23afaf421c275d4640,5ff3a402bc4c4da0edd58235,2021-01-05_00h26.03.749,Colour_Similarity_Experiment_v1,2020.1.2,Win32,60,5ff3a352adaa099f7659f8cc,,,,,,,,,,,,,,,,,,,,FF,,,,,,,,5,2.550705,,,,,,,,,,,,,,,,,,,,,,,,,,,,2,130,-27,1,0,0,response3disk,4,88,7,4,1,0,0,rectangle,7,4,1,0,0,6,7,0,0.001065,7,4,1,0,0,0,87,87,145,1,,,,,,,,,,,,,,,,,,,,,
,,,,,,,,,,,,,,,,,,,,,,,,,,,,,,,,,,,,,,,,,,,5f596c23afaf421c275d4640,5ff3a402bc4c4da0edd58235,2021-01-05_00h26.03.749,Colour_Similarity_Experiment_v1,2020.1.2,Win32,60,5ff3a352adaa099f7659f8cc,,,,,,,,,,,,,,,,,,,,PF,,,,,,,,3,1.96646,,,,,,,,,,,,,,,,,,,,,,,,,,,,5,-47,-127,1,0,0,response5disk,6,89,-10,8,1,0,0,rectangle,-10,8,1,0,0,6,7,0,0.00062,-10,8,1,0,0,0,88,88,103,1,,,,,,,,,,,,,,,,,,,,,
,,,,,,,,,,,,,,,,,,,,,,,,,,,,,,,,,,,,,,,,,,,5f596c23afaf421c275d4640,5ff3a402bc4c4da0edd58235,2021-01-05_00h26.03.749,Colour_Similarity_Experiment_v1,2020.1.2,Win32,60,5ff3a352adaa099f7659f8cc,,,,,,,,,,,,,,,,,,,,FF,,,,,,,,0,1.475,,,,,,,,,,,,,,,,,,,,,,,,,,,,9,-53,149,1,0,0,response7disk,9,90,-2,-10,1,0,0,rectangle,-2,-10,1,0,0,6,4,0,0.000545,-2,-10,1,0,0,0,89,89,17,1,,,,,,,,,,,,,,,,,,,,,
,,,,,,,,,,,,,,,,,,,,,,,,,,,,,,,,,,,,,,,,,,,5f596c23afaf421c275d4640,5ff3a402bc4c4da0edd58235,2021-01-05_00h26.03.749,Colour_Similarity_Experiment_v1,2020.1.2,Win32,60,5ff3a352adaa099f7659f8cc,,,,,,,,,,,,,,,,,,,,FF,,,,,,,,4,2.020455,,,,,,,,,,,,,,,,,,,,,,,,,,,,6,49,-109,1,0,0,response3disk,3,91,-1,0,1,0,0,rectangle,-1,0,1,0,0,6,2,0,0.00112,-1,0,1,0,0,0,90,90,21,1,,,,,,,,,,,,,,,,,,,,,
,,,,,,,,,,,,,,,,,,,,,,,,,,,,,,,,,,,,,,,,,,,5f596c23afaf421c275d4640,5ff3a402bc4c4da0edd58235,2021-01-05_00h26.03.749,Colour_Similarity_Experiment_v1,2020.1.2,Win32,60,5ff3a352adaa099f7659f8cc,,,,,,,,,,,,,,,,,,,,FF,,,,,,,,0,2.735745,,,,,,,,,,,,,,,,,,,,,,,,,,,,4,-48,138,1,0,0,response7disk,4,92,-17,11,1,0,0,rectangle,-17,11,1,0,0,6,1,0,0.000625,-17,11,1,0,0,0,91,91,84,1,,,,,,,,,,,,,,,,,,,,,
,,,,,,,,,,,,,,,,,,,,,,,,,,,,,,,,,,,,,,,,,,,5f596c23afaf421c275d4640,5ff3a402bc4c4da0edd58235,2021-01-05_00h26.03.749,Colour_Similarity_Experiment_v1,2020.1.2,Win32,60,5ff3a352adaa099f7659f8cc,,,,,,,,,,,,,,,,,,,,PF,,,,,,,,4,3.441765,,,,,,,,,,,,,,,,,,,,,,,,,,,,9,47,-94,1,0,0,response3disk,2,93,-16,7,1,0,0,rectangle,-16,7,1,0,0,6,0,0,0.000635,-16,7,1,0,0,0,92,92,157,1,,,,,,,,,,,,,,,,,,,,,
,,,,,,,,,,,,,,,,,,,,,,,,,,,,,,,,,,,,,,,,,,,5f596c23afaf421c275d4640,5ff3a402bc4c4da0edd58235,2021-01-05_00h26.03.749,Colour_Similarity_Experiment_v1,2020.1.2,Win32,60,5ff3a352adaa099f7659f8cc,,,,,,,,,,,,,,,,,,,,FF,,,,,,,,1,2.00562,,,,,,,,,,,,,,,,,,,,,,,,,,,,7,-123,33,1,0,0,response7disk,6,94,11,-9,1,0,0,rectangle,11,-9,1,0,0,6,1,0,0.00129,11,-9,1,0,0,0,93,93,31,1,,,,,,,,,,,,,,,,,,,,,
,,,,,,,,,,,,,,,,,,,,,,,,,,,,,,,,,,,,,,,,,,,5f596c23afaf421c275d4640,5ff3a402bc4c4da0edd58235,2021-01-05_00h26.03.749,Colour_Similarity_Experiment_v1,2020.1.2,Win32,60,5ff3a352adaa099f7659f8cc,,,,,,,,,,,,,,,,,,,,PF,,,,,,,,1,1.65323,,,,,,,,,,,,,,,,,,,,,,,,,,,,6,-116,57,1,0,0,response7disk,5,95,7,6,1,0,0,rectangle,7,6,1,0,0,6,3,0,0.00054,7,6,1,0,0,0,94,94,59,1,,,,,,,,,,,,,,,,,,,,,
,,,,,,,,,,,,,,,,,,,,,,,,,,,,,,,,,,,,,,,,,,,5f596c23afaf421c275d4640,5ff3a402bc4c4da0edd58235,2021-01-05_00h26.03.749,Colour_Similarity_Experiment_v1,2020.1.2,Win32,60,5ff3a352adaa099f7659f8cc,,,,,,,,,,,,,,,,,,,,FF,,,,,,,,4,2.22571,,,,,,,,,,,,,,,,,,,,,,,,,,,,8,44,-131,1,0,0,response3disk,6,96,-25,1,1,0,0,rectangle,-25,1,1,0,0,6,1,0,0.000705,-25,1,1,0,0,0,95,95,37,1,,,,,,,,,,,,,,,,,,,,,
,,,,,,,,,,,,,,,,,,,,,,,,,,,,,,,,,,,,,,,,,,,5f596c23afaf421c275d4640,5ff3a402bc4c4da0edd58235,2021-01-05_00h26.03.749,Colour_Similarity_Experiment_v1,2020.1.2,Win32,60,5ff3a352adaa099f7659f8cc,,,,,,,,,,,,,,,,,,,,PF,,,,,,,,4,3.184985,,,,,,,,,,,,,,,,,,,,,,,,,,,,8,21,-120,1,0,0,response3disk,6,97,12,3,1,0,0,rectangle,83,127,1,0,0,7,7,1,2.26259,14,9,1,0,0,0,96,96,161,1,response1disk_3,rectangle,,,,,,,,,,,,,,,,,,,
,,,,,,,,,,,,,,,,,,,,,,,,,,,,,,,,,,,,,,,,,,,5f596c23afaf421c275d4640,5ff3a402bc4c4da0edd58235,2021-01-05_00h26.03.749,Colour_Similarity_Experiment_v1,2020.1.2,Win32,60,5ff3a352adaa099f7659f8cc,,,,,,,,,,,,,,,,,,,,PF,,,,,,,,6,2.311015,,,,,,,,,,,,,,,,,,,,,,,,,,,,5,106,64,1,0,0,response1disk,2,98,5,7,1,0,0,rectangle,5,7,1,0,0,7,3,0,0.001285,5,7,1,0,0,0,97,97,129,1,,,,,,,,,,,,,,,,,,,,,
,,,,,,,,,,,,,,,,,,,,,,,,,,,,,,,,,,,,,,,,,,,5f596c23afaf421c275d4640,5ff3a402bc4c4da0edd58235,2021-01-05_00h26.03.749,Colour_Similarity_Experiment_v1,2020.1.2,Win32,60,5ff3a352adaa099f7659f8cc,,,,,,,,,,,,,,,,,,,,FF,,,,,,,,0,1.506015,,,,,,,,,,,,,,,,,,,,,,,,,,,,6,-64,113,1,0,0,response7disk,6,99,-5,1,1,0,0,rectangle,-5,1,1,0,0,7,7,0,0.00065,-5,1,1,0,0,0,98,98,91,1,,,,,,,,,,,,,,,,,,,,,
,,,,,,,,,,,,,,,,,,,,,,,,,,,,,,,,,,,,,,,,,,,5f596c23afaf421c275d4640,5ff3a402bc4c4da0edd58235,2021-01-05_00h26.03.749,Colour_Similarity_Experiment_v1,2020.1.2,Win32,60,5ff3a352adaa099f7659f8cc,,,,,,,,,,,,,,,,,,,,PF,,,,,,,,7,1.60362,,,,,,,,,,,,,,,,,,,,,,,,,,,,3,48,137,1,0,0,response1disk,8,100,-13,6,1,0,0,rectangle,-13,6,1,0,0,7,1,0,0.001,-13,6,1,0,0,0,99,99,3,1,,,,,,,,,,,,,,,,,,,,,
,,,,,,,,,,,,,,,,,,,,,,,,,,,,,,,,,,,,,,,,,,,5f596c23afaf421c275d4640,5ff3a402bc4c4da0edd58235,2021-01-05_00h26.03.749,Colour_Similarity_Experiment_v1,2020.1.2,Win32,60,5ff3a352adaa099f7659f8cc,,,,,,,,,,,,,,,,,,,,PF,,,,,,,,7,1.46781,,,,,,,,,,,,,,,,,,,,,,,,,,,,9,42,124,1,0,0,response1disk,5,101,-17,11,1,0,0,rectangle,-17,11,1,0,0,7,0,0,0.000715,-17,11,1,0,0,0,100,100,134,1,,,,,,,,,,,,,,,,,,,,,
,,,,,,,,,,,,,,,,,,,,,,,,,,,,,,,,,,,,,,,,,,,5f596c23afaf421c275d4640,5ff3a402bc4c4da0edd58235,2021-01-05_00h26.03.749,Colour_Similarity_Experiment_v1,2020.1.2,Win32,60,5ff3a352adaa099f7659f8cc,,,,,,,,,,,,,,,,,,,,PF,,,,,,,,2,2.7359,,,,,,,,,,,,,,,,,,,,,,,,,,,,9,-121,-58,1,0,0,response5disk,8,102,-11,-3,1,0,0,rectangle,-11,-3,1,0,0,7,3,0,0.000705,-11,-3,1,0,0,0,101,101,67,1,,,,,,,,,,,,,,,,,,,,,
,,,,,,,,,,,,,,,,,,,,,,,,,,,,,,,,,,,,,,,,,,,5f596c23afaf421c275d4640,5ff3a402bc4c4da0edd58235,2021-01-05_00h26.03.749,Colour_Similarity_Experiment_v1,2020.1.2,Win32,60,5ff3a352adaa099f7659f8cc,,,,,,,,,,,,,,,,,,,,PF,,,,,,,,0,2.4013,,,,,,,,,,,,,,,,,,,,,,,,,,,,9,-47,118,1,0,0,response7disk,9,103,-14,-10,1,0,0,rectangle,-14,-10,1,0,0,7,5,0,0.0007,-14,-10,1,0,0,0,102,102,106,1,,,,,,,,,,,,,,,,,,,,,
,,,,,,,,,,,,,,,,,,,,,,,,,,,,,,,,,,,,,,,,,,,5f596c23afaf421c275d4640,5ff3a402bc4c4da0edd58235,2021-01-05_00h26.03.749,Colour_Similarity_Experiment_v1,2020.1.2,Win32,60,5ff3a352adaa099f7659f8cc,,,,,,,,,,,,,,,,,,,,FF,,,,,,,,0,1.385605,,,,,,,,,,,,,,,,,,,,,,,,,,,,2,-61,160,1,0,0,response7disk,2,104,1,2,1,0,0,rectangle,1,2,1,0,0,7,2,0,0.000545,1,2,1,0,0,0,103,103,142,1,,,,,,,,,,,,,,,,,,,,,
,,,,,,,,,,,,,,,,,,,,,,,,,,,,,,,,,,,,,,,,,,,5f596c23afaf421c275d4640,5ff3a402bc4c4da0edd58235,2021-01-05_00h26.03.749,Colour_Similarity_Experiment_v1,2020.1.2,Win32,60,5ff3a352adaa099f7659f8cc,,,,,,,,,,,,,,,,,,,,FF,,,,,,,,5,1.98722,,,,,,,,,,,,,,,,,,,,,,,,,,,,2,105,-65,1,0,0,response3disk,7,105,-6,-2,1,0,0,rectangle,-6,-2,1,0,0,7,3,0,0.00111,-6,-2,1,0,0,0,104,104,63,1,,,,,,,,,,,,,,,,,,,,,
,,,,,,,,,,,,,,,,,,,,,,,,,,,,,,,,,,,,,,,,,,,5f596c23afaf421c275d4640,5ff3a402bc4c4da0edd58235,2021-01-05_00h26.03.749,Colour_Similarity_Experiment_v1,2020.1.2,Win32,60,5ff3a352adaa099f7659f8cc,,,,,,,,,,,,,,,,,,,,FF,,,,,,,,7,1.29508,,,,,,,,,,,,,,,,,,,,,,,,,,,,1,76,169,1,0,0,response1disk,4,106,-2,3,1,0,0,rectangle,-2,3,1,0,0,7,6,0,0.00062,-2,3,1,0,0,0,105,105,135,1,,,,,,,,,,,,,,,,,,,,,
,,,,,,,,,,,,,,,,,,,,,,,,,,,,,,,,,,,,,,,,,,,5f596c23afaf421c275d4640,5ff3a402bc4c4da0edd58235,2021-01-05_00h26.03.749,Colour_Similarity_Experiment_v1,2020.1.2,Win32,60,5ff3a352adaa099f7659f8cc,,,,,,,,,,,,,,,,,,,,FF,,,,,,,,7,1.43785,,,,,,,,,,,,,,,,,,,,,,,,,,,,5,52,130,1,0,0,response1disk,2,107,10,-3,1,0,0,rectangle,-118,40,1,0,0,1,1,1,1.56629,10,-4,1,0,0,0,106,106,55,1,response7disk_3,rectangle,,,,,,,,,,,,,,,,,,,
,,,,,,,,,,,,,,,,,,,,,,,,,,,,,,,,,,,,,,,,,,,5f596c23afaf421c275d4640,5ff3a402bc4c4da0edd58235,2021-01-05_00h26.03.749,Colour_Similarity_Experiment_v1,2020.1.2,Win32,60,5ff3a352adaa099f7659f8cc,,,,,,,,,,,,,,,,,,,,FF,,,,,,,,7,1.454885,,,,,,,,,,,,,,,,,,,,,,,,,,,,1,68,146,1,0,0,response1disk,6,108,0,1,1,0,0,rectangle,0,1,1,0,0,1,1,0,0.0006,0,1,1,0,0,0,107,107,58,1,,,,,,,,,,,,,,,,,,,,,
,,,,,,,,,,,,,,,,,,,,,,,,,,,,,,,,,,,,,,,,,,,5f596c23afaf421c275d4640,5ff3a402bc4c4da0edd58235,2021-01-05_00h26.03.749,Colour_Similarity_Experiment_v1,2020.1.2,Win32,60,5ff3a352adaa099f7659f8cc,,,,,,,,,,,,,,,,,,,,PF,,,,,,,,5,2.19148,,,,,,,,,,,,,,,,,,,,,,,,,,,,5,101,-62,1,0,0,response3disk,8,109,8,-8,1,0,0,rectangle,8,-8,1,0,0,1,0,0,0.001345,8,-8,1,0,0,0,108,108,149,1,,,,,,,,,,,,,,,,,,,,,
,,,,,,,,,,,,,,,,,,,,,,,,,,,,,,,,,,,,,,,,,,,5f596c23afaf421c275d4640,5ff3a402bc4c4da0edd58235,2021-01-05_00h26.03.749,Colour_Similarity_Experiment_v1,2020.1.2,Win32,60,5ff3a352adaa099f7659f8cc,,,,,,,,,,,,,,,,,,,,PF,,,,,,,,0,5.29392,,,,,,,,,,,,,,,,,,,,,,,,,,,,5,-64,135,1,0,0,response7disk,5,110,6,8,1,0,0,rectangle,6,8,1,0,0,1,7,0,0.00157,6,8,1,0,0,0,109,109,94,1,,,,,,,,,,,,,,,,,,,,,
,,,,,,,,,,,,,,,,,,,,,,,,,,,,,,,,,,,,,,,,,,,5f596c23afaf421c275d4640,5ff3a402bc4c4da0edd58235,2021-01-05_00h26.03.749,Colour_Similarity_Experiment_v1,2020.1.2,Win32,60,5ff3a352adaa099f7659f8cc,,,,,,,,,,,,,,,,,,,,PF,,,,,,,,4,2.140855,,,,,,,,,,,,,,,,,,,,,,,,,,,,4,54,-115,1,0,0,response3disk,6,111,-5,5,1,0,0,rectangle,-5,5,1,0,0,1,3,0,0.000725,-5,5,1,0,0,0,110,110,120,1,,,,,,,,,,,,,,,,,,,,,
,,,,,,,,,,,,,,,,,,,,,,,,,,,,,,,,,,,,,,,,,,,5f596c23afaf421c275d4640,5ff3a402bc4c4da0edd58235,2021-01-05_00h26.03.749,Colour_Similarity_Experiment_v1,2020.1.2,Win32,60,5ff3a352adaa099f7659f8cc,,,,,,,,,,,,,,,,,,,,PF,,,,,,,,6,2.55836,,,,,,,,,,,,,,,,,,,,,,,,,,,,3,118,61,1,0,0,response1disk,2,112,-15,-5,1,0,0,rectangle,48,-126,1,0,0,4,4,1,2.39711,6,4,1,0,0,0,111,111,36,1,response3disk_3,rectangle,,,,,,,,,,,,,,,,,,,
,,,,,,,,,,,,,,,,,,,,,,,,,,,,,,,,,,,,,,,,,,,5f596c23afaf421c275d4640,5ff3a402bc4c4da0edd58235,2021-01-05_00h26.03.749,Colour_Similarity_Experiment_v1,2020.1.2,Win32,60,5ff3a352adaa099f7659f8cc,,,,,,,,,,,,,,,,,,,,FF,,,,,,,,3,2.378425,,,,,,,,,,,,,,,,,,,,,,,,,,,,5,-62,-106,1,0,0,response5disk,4,113,-9,-6,1,0,0,rectangle,-9,-6,1,0,0,4,0,0,0.000835,-9,-6,1,0,0,0,112,112,8,1,,,,,,,,,,,,,,,,,,,,,
,,,,,,,,,,,,,,,,,,,,,,,,,,,,,,,,,,,,,,,,,,,5f596c23afaf421c275d4640,5ff3a402bc4c4da0edd58235,2021-01-05_00h26.03.749,Colour_Similarity_Experiment_v1,2020.1.2,Win32,60,5ff3a352adaa099f7659f8cc,,,,,,,,,,,,,,,,,,,,PF,,,,,,,,6,1.77068,,,,,,,,,,,,,,,,,,,,,,,,,,,,4,110,45,1,0,0,response1disk,8,114,3,-8,1,0,0,rectangle,3,-8,1,0,0,4,1,0,0.00065,3,-8,1,0,0,0,113,113,124,1,,,,,,,,,,,,,,,,,,,,,
,,,,,,,,,,,,,,,,,,,,,,,,,,,,,,,,,,,,,,,,,,,5f596c23afaf421c275d4640,5ff3a402bc4c4da0edd58235,2021-01-05_00h26.03.749,Colour_Similarity_Experiment_v1,2020.1.2,Win32,60,5ff3a352adaa099f7659f8cc,,,,,,,,,,,,,,,,,,,,FF,,,,,,,,7,1.991745,,,,,,,,,,,,,,,,,,,,,,,,,,,,3,34,102,1,0,0,response1disk,7,115,-10,8,1,0,0,rectangle,-10,8,1,0,0,4,3,0,0.001135,-10,8,1,0,0,0,114,114,118,1,,,,,,,,,,,,,,,,,,,,,
,,,,,,,,,,,,,,,,,,,,,,,,,,,,,,,,,,,,,,,,,,,5f596c23afaf421c275d4640,5ff3a402bc4c4da0edd58235,2021-01-05_00h26.03.749,Colour_Similarity_Experiment_v1,2020.1.2,Win32,60,5ff3a352adaa099f7659f8cc,,,,,,,,,,,,,,,,,,,,PF,,,,,,,,6,1.942665,,,,,,,,,,,,,,,,,,,,,,,,,,,,1,137,52,1,0,0,response1disk,3,116,0,-9,1,0,0,rectangle,0,-9,1,0,0,4,6,0,0.000565,0,-9,1,0,0,0,115,115,1,1,,,,,,,,,,,,,,,,,,,,,
,,,,,,,,,,,,,,,,,,,,,,,,,,,,,,,,,,,,,,,,,,,5f596c23afaf421c275d4640,5ff3a402bc4c4da0edd58235,2021-01-05_00h26.03.749,Colour_Similarity_Experiment_v1,2020.1.2,Win32,60,5ff3a352adaa099f7659f8cc,,,,,,,,,,,,,,,,,,,,PF,,,,,,,,7,1.261245,,,,,,,,,,,,,,,,,,,,,,,,,,,,3,71,105,1,0,0,response1disk,9,117,13,-1,1,0,0,rectangle,13,-1,1,0,0,4,2,0,0.000735,13,-1,1,0,0,0,116,116,79,1,,,,,,,,,,,,,,,,,,,,,
,,,,,,,,,,,,,,,,,,,,,,,,,,,,,,,,,,,,,,,,,,,5f596c23afaf421c275d4640,5ff3a402bc4c4da0edd58235,2021-01-05_00h26.03.749,Colour_Similarity_Experiment_v1,2020.1.2,Win32,60,5ff3a352adaa099f7659f8cc,,,,,,,,,,,,,,,,,,,,PF,,,,,,,,7,1.235325,,,,,,,,,,,,,,,,,,,,,,,,,,,,2,57,121,1,0,0,response1disk,8,118,-5,-11,1,0,0,rectangle,-5,-11,1,0,0,4,7,0,0.000525,-5,-11,1,0,0,0,117,117,52,1,,,,,,,,,,,,,,,,,,,,,
,,,,,,,,,,,,,,,,,,,,,,,,,,,,,,,,,,,,,,,,,,,5f596c23afaf421c275d4640,5ff3a402bc4c4da0edd58235,2021-01-05_00h26.03.749,Colour_Similarity_Experiment_v1,2020.1.2,Win32,60,5ff3a352adaa099f7659f8cc,,,,,,,,,,,,,,,,,,,,PF,,,,,,,,7,1.66117,,,,,,,,,,,,,,,,,,,,,,,,,,,,8,71,112,1,0,0,response1disk,3,119,15,2,1,0,0,rectangle,15,2,1,0,0,4,7,0,0.00115,15,2,1,0,0,0,118,118,71,1,,,,,,,,,,,,,,,,,,,,,
,,,,,,,,,,,,,,,,,,,,,,,,,,,,,,,,,,,,,,,,,,,5f596c23afaf421c275d4640,5ff3a402bc4c4da0edd58235,2021-01-05_00h26.03.749,Colour_Similarity_Experiment_v1,2020.1.2,Win32,60,5ff3a352adaa099f7659f8cc,,,,,,,,,,,,,,,,,,,,PF,,,,,,,,7,1.132525,,,,,,,,,,,,,,,,,,,,,,,,,,,,1,54,118,1,0,0,response1disk,7,120,9,4,1,0,0,rectangle,9,4,1,0,0,4,0,0,0.000555,9,4,1,0,0,0,119,119,150,1,,,,,,,,,,,,,,,,,,,,,
,,,,,,,,,,,,,,,,,,,,,,,,,,,,,,,,,,,,,,,,,,,5f596c23afaf421c275d4640,5ff3a402bc4c4da0edd58235,2021-01-05_00h26.03.749,Colour_Similarity_Experiment_v1,2020.1.2,Win32,60,5ff3a352adaa099f7659f8cc,,,,,,,,,,,,,,,,,,,,FF,,,,,,,,7,1.114785,,,,,,,,,,,,,,,,,,,,,,,,,,,,8,41,123,1,0,0,response1disk,3,121,-12,-6,1,0,0,rectangle,-12,-6,1,0,0,4,6,0,0.00057,-12,-6,1,0,0,0,120,120,154,1,,,,,,,,,,,,,,,,,,,,,
,,,,,,,,,,,,,,,,,,,,,,,,,,,,,,,,,,,,,,,,,,,5f596c23afaf421c275d4640,5ff3a402bc4c4da0edd58235,2021-01-05_00h26.03.749,Colour_Similarity_Experiment_v1,2020.1.2,Win32,60,5ff3a352adaa099f7659f8cc,,,,,,,,,,,,,,,,,,,,FF,,,,,,,,3,2.60865,,,,,,,,,,,,,,,,,,,,,,,,,,,,7,-54,-121,1,0,0,response5disk,8,122,-8,4,1,0,0,rectangle,-43,121,1,0,0,0,0,1,3.679965,16,-7,1,0,0,0,121,121,97,1,response7disk_3,rectangle,,,,,,,,,,,,,,,,,,,
,,,,,,,,,,,,,,,,,,,,,,,,,,,,,,,,,,,,,,,,,,,5f596c23afaf421c275d4640,5ff3a402bc4c4da0edd58235,2021-01-05_00h26.03.749,Colour_Similarity_Experiment_v1,2020.1.2,Win32,60,5ff3a352adaa099f7659f8cc,,,,,,,,,,,,,,,,,,,,FF,,,,,,,,4,2.26869,,,,,,,,,,,,,,,,,,,,,,,,,,,,9,37,-130,1,0,0,response3disk,7,123,-2,-2,1,0,0,rectangle,-2,-2,1,0,0,0,7,0,0.00065,-2,-2,1,0,0,0,122,122,100,1,,,,,,,,,,,,,,,,,,,,,
,,,,,,,,,,,,,,,,,,,,,,,,,,,,,,,,,,,,,,,,,,,5f596c23afaf421c275d4640,5ff3a402bc4c4da0edd58235,2021-01-05_00h26.03.749,Colour_Similarity_Experiment_v1,2020.1.2,Win32,60,5ff3a352adaa099f7659f8cc,,,,,,,,,,,,,,,,,,,,PF,,,,,,,,2,2.30413,,,,,,,,,,,,,,,,,,,,,,,,,,,,2,-123,-87,1,0,0,response5disk,1,124,-10,3,1,0,0,rectangle,-10,3,1,0,0,0,3,0,0.00058,-10,3,1,0,0,0,123,123,9,1,,,,,,,,,,,,,,,,,,,,,
,,,,,,,,,,,,,,,,,,,,,,,,,,,,,,,,,,,,,,,,,,,5f596c23afaf421c275d4640,5ff3a402bc4c4da0edd58235,2021-01-05_00h26.03.749,Colour_Similarity_Experiment_v1,2020.1.2,Win32,60,5ff3a352adaa099f7659f8cc,,,,,,,,,,,,,,,,,,,,FF,,,,,,,,3,1.518175,,,,,,,,,,,,,,,,,,,,,,,,,,,,2,-62,-138,1,0,0,response5disk,1,125,-22,0,1,0,0,rectangle,-22,0,1,0,0,0,1,0,0.000635,-22,0,1,0,0,0,124,124,85,1,,,,,,,,,,,,,,,,,,,,,
,,,,,,,,,,,,,,,,,,,,,,,,,,,,,,,,,,,,,,,,,,,5f596c23afaf421c275d4640,5ff3a402bc4c4da0edd58235,2021-01-05_00h26.03.749,Colour_Similarity_Experiment_v1,2020.1.2,Win32,60,5ff3a352adaa099f7659f8cc,,,,,,,,,,,,,,,,,,,,FF,,,,,,,,1,1.744905,,,,,,,,,,,,,,,,,,,,,,,,,,,,6,-115,47,1,0,0,response7disk,7,126,-5,6,1,0,0,rectangle,-5,6,1,0,0,0,0,0,0.00124,-5,6,1,0,0,0,125,125,18,1,,,,,,,,,,,,,,,,,,,,,
,,,,,,,,,,,,,,,,,,,,,,,,,,,,,,,,,,,,,,,,,,,5f596c23afaf421c275d4640,5ff3a402bc4c4da0edd58235,2021-01-05_00h26.03.749,Colour_Similarity_Experiment_v1,2020.1.2,Win32,60,5ff3a352adaa099f7659f8cc,,,,,,,,,,,,,,,,,,,,FF,,,,,,,,5,2.448945,,,,,,,,,,,,,,,,,,,,,,,,,,,,9,107,-52,1,0,0,response3disk,1,127,-3,-3,1,0,0,rectangle,-3,-3,1,0,0,0,4,0,0.00083,-3,-3,1,0,0,0,126,126,111,1,,,,,,,,,,,,,,,,,,,,,
,,,,,,,,,,,,,,,,,,,,,,,,,,,,,,,,,,,,,,,,,,,5f596c23afaf421c275d4640,5ff3a402bc4c4da0edd58235,2021-01-05_00h26.03.749,Colour_Similarity_Experiment_v1,2020.1.2,Win32,60,5ff3a352adaa099f7659f8cc,,,,,,,,,,,,,,,,,,,,FF,,,,,,,,2,2.19607,,,,,,,,,,,,,,,,,,,,,,,,,,,,5,-134,-80,1,0,0,response5disk,3,128,-27,-15,1,0,0,rectangle,-27,-15,1,0,0,0,4,0,0.00092,-27,-15,1,0,0,0,127,127,25,1,,,,,,,,,,,,,,,,,,,,,
,,,,,,,,,,,,,,,,,,,,,,,,,,,,,,,,,,,,,,,,,,,5f596c23afaf421c275d4640,5ff3a402bc4c4da0edd58235,2021-01-05_00h26.03.749,Colour_Similarity_Experiment_v1,2020.1.2,Win32,60,5ff3a352adaa099f7659f8cc,,,,,,,,,,,,,,,,,,,,PF,,,,,,,,5,2.440385,,,,,,,,,,,,,,,,,,,,,,,,,,,,7,114,-81,1,0,0,response3disk,9,129,-12,8,1,0,0,rectangle,-12,8,1,0,0,0,2,0,0.00074,-12,8,1,0,0,0,128,128,10,1,,,,,,,,,,,,,,,,,,,,,
,,,,,,,,,,,,,,,,,,,,,,,,,,,,,,,,,,,,,,,,,,,5f596c23afaf421c275d4640,5ff3a402bc4c4da0edd58235,2021-01-05_00h26.03.749,Colour_Similarity_Experiment_v1,2020.1.2,Win32,60,5ff3a352adaa099f7659f8cc,,,,,,,,,,,,,,,,,,,,PF,,,,,,,,3,2.80159,,,,,,,,,,,,,,,,,,,,,,,,,,,,8,-49,-126,1,0,0,response5disk,7,130,0,-6,1,0,0,rectangle,0,-6,1,0,0,0,7,0,0.001025,0,-6,1,0,0,0,129,129,23,1,,,,,,,,,,,,,,,,,,,,,
,,,,,,,,,,,,,,,,,,,,,,,,,,,,,,,,,,,,,,,,,,,5f596c23afaf421c275d4640,5ff3a402bc4c4da0edd58235,2021-01-05_00h26.03.749,Colour_Similarity_Experiment_v1,2020.1.2,Win32,60,5ff3a352adaa099f7659f8cc,,,,,,,,,,,,,,,,,,,,FF,,,,,,,,1,2.179635,,,,,,,,,,,,,,,,,,,,,,,,,,,,4,-128,69,1,0,0,response7disk,3,131,9,0,1,0,0,rectangle,9,0,1,0,0,0,1,0,0.00064,9,0,1,0,0,0,130,130,77,1,,,,,,,,,,,,,,,,,,,,,
,,,,,,,,,,,,,,,,,,,,,,,,,,,,,,,,,,,,,,,,,,,5f596c23afaf421c275d4640,5ff3a402bc4c4da0edd58235,2021-01-05_00h26.03.749,Colour_Similarity_Experiment_v1,2020.1.2,Win32,60,5ff3a352adaa099f7659f8cc,,,,,,,,,,,,,,,,,,,,PF,,,,,,,,0,1.637685,,,,,,,,,,,,,,,,,,,,,,,,,,,,2,-53,115,1,0,0,response7disk,2,132,9,-15,1,0,0,rectangle,9,-15,1,0,0,0,2,0,0.001115,9,-15,1,0,0,0,131,131,14,1,,,,,,,,,,,,,,,,,,,,,
,,,,,,,,,,,,,,,,,,,,,,,,,,,,,,,,,,,,,,,,,,,5f596c23afaf421c275d4640,5ff3a402bc4c4da0edd58235,2021-01-05_00h26.03.749,Colour_Similarity_Experiment_v1,2020.1.2,Win32,60,5ff3a352adaa099f7659f8cc,,,,,,,,,,,,,,,,,,,,FF,,,,,,,,5,1.95777,,,,,,,,,,,,,,,,,,,,,,,,,,,,8,107,-52,1,0,0,response3disk,1,133,-11,8,1,0,0,rectangle,-11,8,1,0,0,0,5,0,0.00089,-11,8,1,0,0,0,132,132,20,1,,,,,,,,,,,,,,,,,,,,,
,,,,,,,,,,,,,,,,,,,,,,,,,,,,,,,,,,,,,,,,,,,5f596c23afaf421c275d4640,5ff3a402bc4c4da0edd58235,2021-01-05_00h26.03.749,Colour_Similarity_Experiment_v1,2020.1.2,Win32,60,5ff3a352adaa099f7659f8cc,,,,,,,,,,,,,,,,,,,,FF,,,,,,,,6,2.218615,,,,,,,,,,,,,,,,,,,,,,,,,,,,2,135,56,1,0,0,response1disk,8,134,7,0,1,0,0,rectangle,7,0,1,0,0,0,7,0,0.00083,7,0,1,0,0,0,133,133,62,1,,,,,,,,,,,,,,,,,,,,,
,,,,,,,,,,,,,,,,,,,,,,,,,,,,,,,,,,,,,,,,,,,5f596c23afaf421c275d4640,5ff3a402bc4c4da0edd58235,2021-01-05_00h26.03.749,Colour_Similarity_Experiment_v1,2020.1.2,Win32,60,5ff3a352adaa099f7659f8cc,,,,,,,,,,,,,,,,,,,,PF,,,,,,,,6,1.838855,,,,,,,,,,,,,,,,,,,,,,,,,,,,2,111,39,1,0,0,response1disk,4,135,20,3,1,0,0,rectangle,20,3,1,0,0,0,0,0,0.00056,20,3,1,0,0,0,134,134,127,1,,,,,,,,,,,,,,,,,,,,,
,,,,,,,,,,,,,,,,,,,,,,,,,,,,,,,,,,,,,,,,,,,5f596c23afaf421c275d4640,5ff3a402bc4c4da0edd58235,2021-01-05_00h26.03.749,Colour_Similarity_Experiment_v1,2020.1.2,Win32,60,5ff3a352adaa099f7659f8cc,,,,,,,,,,,,,,,,,,,,PF,,,,,,,,4,2.187775,,,,,,,,,,,,,,,,,,,,,,,,,,,,6,53,-116,1,0,0,response3disk,8,136,-7,-15,1,0,0,rectangle,-7,-15,1,0,0,0,2,0,0.00056,-7,-15,1,0,0,0,135,135,64,1,,,,,,,,,,,,,,,,,,,,,
,,,,,,,,,,,,,,,,,,,,,,,,,,,,,,,,,,,,,,,,,,,5f596c23afaf421c275d4640,5ff3a402bc4c4da0edd58235,2021-01-05_00h26.03.749,Colour_Similarity_Experiment_v1,2020.1.2,Win32,60,5ff3a352adaa099f7659f8cc,,,,,,,,,,,,,,,,,,,,PF,,,,,,,,5,1.927395,,,,,,,,,,,,,,,,,,,,,,,,,,,,9,109,-55,1,0,0,response3disk,1,137,-6,-9,1,0,0,rectangle,-6,-9,1,0,0,0,1,0,0.000605,-6,-9,1,0,0,0,136,136,74,1,,,,,,,,,,,,,,,,,,,,,
,,,,,,,,,,,,,,,,,,,,,,,,,,,,,,,,,,,,,,,,,,,5f596c23afaf421c275d4640,5ff3a402bc4c4da0edd58235,2021-01-05_00h26.03.749,Colour_Similarity_Experiment_v1,2020.1.2,Win32,60,5ff3a352adaa099f7659f8cc,,,,,,,,,,,,,,,,,,,,PF,,,,,,,,5,2.602135,,,,,,,,,,,,,,,,,,,,,,,,,,,,3,131,-48,1,0,0,response3disk,6,138,-5,10,1,0,0,rectangle,-5,10,1,0,0,0,4,0,0.000535,-5,10,1,0,0,0,137,137,47,1,,,,,,,,,,,,,,,,,,,,,
,,,,,,,,,,,,,,,,,,,,,,,,,,,,,,,,,,,,,,,,,,,5f596c23afaf421c275d4640,5ff3a402bc4c4da0edd58235,2021-01-05_00h26.03.749,Colour_Similarity_Experiment_v1,2020.1.2,Win32,60,5ff3a352adaa099f7659f8cc,,,,,,,,,,,,,,,,,,,,FF,,,,,,,,7,2.2038,,,,,,,,,,,,,,,,,,,,,,,,,,,,3,52,143,1,0,0,response1disk,1,139,-2,13,1,0,0,rectangle,-2,13,1,0,0,0,4,0,0.00054,-2,13,1,0,0,0,138,138,125,1,,,,,,,,,,,,,,,,,,,,,
,,,,,,,,,,,,,,,,,,,,,,,,,,,,,,,,,,,,,,,,,,,5f596c23afaf421c275d4640,5ff3a402bc4c4da0edd58235,2021-01-05_00h26.03.749,Colour_Similarity_Experiment_v1,2020.1.2,Win32,60,5ff3a352adaa099f7659f8cc,,,,,,,,,,,,,,,,,,,,FF,,,,,,,,6,2.18907,,,,,,,,,,,,,,,,,,,,,,,,,,,,4,125,62,1,0,0,response1disk,9,140,-6,-2,1,0,0,rectangle,-6,-2,1,0,0,0,3,0,0.00059,-6,-2,1,0,0,0,139,139,90,1,,,,,,,,,,,,,,,,,,,,,
,,,,,,,,,,,,,,,,,,,,,,,,,,,,,,,,,,,,,,,,,,,5f596c23afaf421c275d4640,5ff3a402bc4c4da0edd58235,2021-01-05_00h26.03.749,Colour_Similarity_Experiment_v1,2020.1.2,Win32,60,5ff3a352adaa099f7659f8cc,,,,,,,,,,,,,,,,,,,,FF,,,,,,,,7,3.14213,,,,,,,,,,,,,,,,,,,,,,,,,,,,7,34,122,1,0,0,response1disk,2,141,7,-4,1,0,0,rectangle,7,-4,1,0,0,0,2,0,0.000735,7,-4,1,0,0,0,140,140,138,1,,,,,,,,,,,,,,,,,,,,,
,,,,,,,,,,,,,,,,,,,,,,,,,,,,,,,,,,,,,,,,,,,5f596c23afaf421c275d4640,5ff3a402bc4c4da0edd58235,2021-01-05_00h26.03.749,Colour_Similarity_Experiment_v1,2020.1.2,Win32,60,5ff3a352adaa099f7659f8cc,,,,,,,,,,,,,,,,,,,,PF,,,,,,,,4,2.32658,,,,,,,,,,,,,,,,,,,,,,,,,,,,3,50,-115,1,0,0,response3disk,7,142,0,-7,1,0,0,rectangle,0,-7,1,0,0,0,5,0,0.001185,0,-7,1,0,0,0,141,141,41,1,,,,,,,,,,,,,,,,,,,,,
,,,,,,,,,,,,,,,,,,,,,,,,,,,,,,,,,,,,,,,,,,,5f596c23afaf421c275d4640,5ff3a402bc4c4da0edd58235,2021-01-05_00h26.03.749,Colour_Similarity_Experiment_v1,2020.1.2,Win32,60,5ff3a352adaa099f7659f8cc,,,,,,,,,,,,,,,,,,,,PF,,,,,,,,2,1.884755,,,,,,,,,,,,,,,,,,,,,,,,,,,,4,-131,-45,1,0,0,response5disk,3,143,-18,0,1,0,0,rectangle,-18,0,1,0,0,0,1,0,0.000585,-18,0,1,0,0,0,142,142,89,1,,,,,,,,,,,,,,,,,,,,,
,,,,,,,,,,,,,,,,,,,,,,,,,,,,,,,,,,,,,,,,,,,5f596c23afaf421c275d4640,5ff3a402bc4c4da0edd58235,2021-01-05_00h26.03.749,Colour_Similarity_Experiment_v1,2020.1.2,Win32,60,5ff3a352adaa099f7659f8cc,,,,,,,,,,,,,,,,,,,,PF,,,,,,,,2,2.170555,,,,,,,,,,,,,,,,,,,,,,,,,,,,5,-100,-40,1,0,0,response5disk,3,144,-5,-8,1,0,0,rectangle,-5,-8,1,0,0,0,1,0,0.00094,-5,-8,1,0,0,0,143,143,109,1,,,,,,,,,,,,,,,,,,,,,
,,,,,,,,,,,,,,,,,,,,,,,,,,,,,,,,,,,,,,,,,,,5f596c23afaf421c275d4640,5ff3a402bc4c4da0edd58235,2021-01-05_00h26.03.749,Colour_Similarity_Experiment_v1,2020.1.2,Win32,60,5ff3a352adaa099f7659f8cc,,,,,,,,,,,,,,,,,,,,PF,,,,,,,,7,2.452155,,,,,,,,,,,,,,,,,,,,,,,,,,,,5,57,118,1,0,0,response1disk,9,145,0,-15,1,0,0,rectangle,50,96,1,0,0,7,7,1,1.980665,12,11,1,0,0,0,144,144,136,1,response1disk_3,rectangle,,,,,,,,,,,,,,,,,,,
,,,,,,,,,,,,,,,,,,,,,,,,,,,,,,,,,,,,,,,,,,,5f596c23afaf421c275d4640,5ff3a402bc4c4da0edd58235,2021-01-05_00h26.03.749,Colour_Similarity_Experiment_v1,2020.1.2,Win32,60,5ff3a352adaa099f7659f8cc,,,,,,,,,,,,,,,,,,,,FF,,,,,,,,5,2.05796,,,,,,,,,,,,,,,,,,,,,,,,,,,,8,114,-72,1,0,0,response3disk,5,146,25,0,1,0,0,rectangle,25,0,1,0,0,7,5,0,0.00069,25,0,1,0,0,0,145,145,152,1,,,,,,,,,,,,,,,,,,,,,
,,,,,,,,,,,,,,,,,,,,,,,,,,,,,,,,,,,,,,,,,,,5f596c23afaf421c275d4640,5ff3a402bc4c4da0edd58235,2021-01-05_00h26.03.749,Colour_Similarity_Experiment_v1,2020.1.2,Win32,60,5ff3a352adaa099f7659f8cc,,,,,,,,,,,,,,,,,,,,FF,,,,,,,,3,2.44529,,,,,,,,,,,,,,,,,,,,,,,,,,,,5,-40,-120,1,0,0,response5disk,8,147,-10,-6,1,0,0,rectangle,-10,-6,1,0,0,7,4,0,0.00111,-10,-6,1,0,0,0,146,146,16,1,,,,,,,,,,,,,,,,,,,,,
,,,,,,,,,,,,,,,,,,,,,,,,,,,,,,,,,,,,,,,,,,,5f596c23afaf421c275d4640,5ff3a402bc4c4da0edd58235,2021-01-05_00h26.03.749,Colour_Similarity_Experiment_v1,2020.1.2,Win32,60,5ff3a352adaa099f7659f8cc,,,,,,,,,,,,,,,,,,,,FF,,,,,,,,6,1.990455,,,,,,,,,,,,,,,,,,,,,,,,,,,,6,147,55,1,0,0,response1disk,1,148,7,-5,1,0,0,rectangle,7,-5,1,0,0,7,6,0,0.0006,7,-5,1,0,0,0,147,147,5,1,,,,,,,,,,,,,,,,,,,,,
,,,,,,,,,,,,,,,,,,,,,,,,,,,,,,,,,,,,,,,,,,,5f596c23afaf421c275d4640,5ff3a402bc4c4da0edd58235,2021-01-05_00h26.03.749,Colour_Similarity_Experiment_v1,2020.1.2,Win32,60,5ff3a352adaa099f7659f8cc,,,,,,,,,,,,,,,,,,,,PF,,,,,,,,6,1.61921,,,,,,,,,,,,,,,,,,,,,,,,,,,,6,123,65,1,0,0,response1disk,1,149,14,8,1,0,0,rectangle,14,8,1,0,0,7,7,0,0.00067,14,8,1,0,0,0,148,148,46,1,,,,,,,,,,,,,,,,,,,,,
,,,,,,,,,,,,,,,,,,,,,,,,,,,,,,,,,,,,,,,,,,,5f596c23afaf421c275d4640,5ff3a402bc4c4da0edd58235,2021-01-05_00h26.03.749,Colour_Similarity_Experiment_v1,2020.1.2,Win32,60,5ff3a352adaa099f7659f8cc,,,,,,,,,,,,,,,,,,,,PF,,,,,,,,5,2.122735,,,,,,,,,,,,,,,,,,,,,,,,,,,,5,118,-46,1,0,0,response3disk,1,150,13,-1,1,0,0,rectangle,121,-46,1,0,0,5,5,1,1.964965,-4,-3,1,0,0,0,149,149,159,1,response3disk_3,rectangle,,,,,,,,,,,,,,,,,,,
,,,,,,,,,,,,,,,,,,,,,,,,,,,,,,,,,,,,,,,,,,,5f596c23afaf421c275d4640,5ff3a402bc4c4da0edd58235,2021-01-05_00h26.03.749,Colour_Similarity_Experiment_v1,2020.1.2,Win32,60,5ff3a352adaa099f7659f8cc,,,,,,,,,,,,,,,,,,,,PF,,,,,,,,7,2.173245,,,,,,,,,,,,,,,,,,,,,,,,,,,,9,43,101,1,0,0,response1disk,3,151,21,-8,1,0,0,rectangle,21,-8,1,0,0,5,0,0,0.001075,21,-8,1,0,0,0,150,150,119,1,,,,,,,,,,,,,,,,,,,,,
,,,,,,,,,,,,,,,,,,,,,,,,,,,,,,,,,,,,,,,,,,,5f596c23afaf421c275d4640,5ff3a402bc4c4da0edd58235,2021-01-05_00h26.03.749,Colour_Similarity_Experiment_v1,2020.1.2,Win32,60,5ff3a352adaa099f7659f8cc,,,,,,,,,,,,,,,,,,,,FF,,,,,,,,7,1.2461,,,,,,,,,,,,,,,,,,,,,,,,,,,,7,55,102,1,0,0,response1disk,1,152,6,-5,1,0,0,rectangle,6,-5,1,0,0,5,6,0,0.001095,6,-5,1,0,0,0,151,151,132,1,,,,,,,,,,,,,,,,,,,,,
,,,,,,,,,,,,,,,,,,,,,,,,,,,,,,,,,,,,,,,,,,,5f596c23afaf421c275d4640,5ff3a402bc4c4da0edd58235,2021-01-05_00h26.03.749,Colour_Similarity_Experiment_v1,2020.1.2,Win32,60,5ff3a352adaa099f7659f8cc,,,,,,,,,,,,,,,,,,,,PF,,,,,,,,4,2.92938,,,,,,,,,,,,,,,,,,,,,,,,,,,,4,79,-145,1,0,0,response3disk,2,153,-7,-3,1,0,0,rectangle,-7,-3,1,0,0,5,6,0,0.0009,-7,-3,1,0,0,0,152,152,108,1,,,,,,,,,,,,,,,,,,,,,
,,,,,,,,,,,,,,,,,,,,,,,,,,,,,,,,,,,,,,,,,,,5f596c23afaf421c275d4640,5ff3a402bc4c4da0edd58235,2021-01-05_00h26.03.749,Colour_Similarity_Experiment_v1,2020.1.2,Win32,60,5ff3a352adaa099f7659f8cc,,,,,,,,,,,,,,,,,,,,FF,,,,,,,,5,5.38094,,,,,,,,,,,,,,,,,,,,,,,,,,,,9,94,-66,1,0,0,response3disk,6,154,-1,-5,1,0,0,rectangle,-1,-5,1,0,0,5,0,0,0.00073,-1,-5,1,0,0,0,153,153,117,1,,,,,,,,,,,,,,,,,,,,,
,,,,,,,,,,,,,,,,,,,,,,,,,,,,,,,,,,,,,,,,,,,5f596c23afaf421c275d4640,5ff3a402bc4c4da0edd58235,2021-01-05_00h26.03.749,Colour_Similarity_Experiment_v1,2020.1.2,Win32,60,5ff3a352adaa099f7659f8cc,,,,,,,,,,,,,,,,,,,,FF,,,,,,,,6,2.64325,,,,,,,,,,,,,,,,,,,,,,,,,,,,4,157,79,1,0,0,response1disk,7,155,-1,0,1,0,0,rectangle,-1,0,1,0,0,5,3,0,0.000555,-1,0,1,0,0,0,154,154,87,1,,,,,,,,,,,,,,,,,,,,,
,,,,,,,,,,,,,,,,,,,,,,,,,,,,,,,,,,,,,,,,,,,5f596c23afaf421c275d4640,5ff3a402bc4c4da0edd58235,2021-01-05_00h26.03.749,Colour_Similarity_Experiment_v1,2020.1.2,Win32,60,5ff3a352adaa099f7659f8cc,,,,,,,,,,,,,,,,,,,,FF,,,,,,,,7,1.41666,,,,,,,,,,,,,,,,,,,,,,,,,,,,8,49,102,1,0,0,response1disk,4,156,19,14,1,0,0,rectangle,19,14,1,0,0,5,7,0,0.00058,19,14,1,0,0,0,155,155,88,1,,,,,,,,,,,,,,,,,,,,,
,,,,,,,,,,,,,,,,,,,,,,,,,,,,,,,,,,,,,,,,,,,5f596c23afaf421c275d4640,5ff3a402bc4c4da0edd58235,2021-01-05_00h26.03.749,Colour_Similarity_Experiment_v1,2020.1.2,Win32,60,5ff3a352adaa099f7659f8cc,,,,,,,,,,,,,,,,,,,,PF,,,,,,,,3,1.741485,,,,,,,,,,,,,,,,,,,,,,,,,,,,2,-48,-124,1,0,0,response5disk,5,157,11,3,1,0,0,rectangle,11,3,1,0,0,5,6,0,0.000725,11,3,1,0,0,0,156,156,147,1,,,,,,,,,,,,,,,,,,,,,
,,,,,,,,,,,,,,,,,,,,,,,,,,,,,,,,,,,,,,,,,,,5f596c23afaf421c275d4640,5ff3a402bc4c4da0edd58235,2021-01-05_00h26.03.749,Colour_Similarity_Experiment_v1,2020.1.2,Win32,60,5ff3a352adaa099f7659f8cc,,,,,,,,,,,,,,,,,,,,PF,,,,,,,,4,2.801055,,,,,,,,,,,,,,,,,,,,,,,,,,,,1,77,-125,1,0,0,response3disk,9,158,13,1,1,0,0,rectangle,13,1,1,0,0,5,5,0,0.000625,13,1,1,0,0,0,157,157,15,1,,,,,,,,,,,,,,,,,,,,,
,,,,,,,,,,,,,,,,,,,,,,,,,,,,,,,,,,,,,,,,,,,5f596c23afaf421c275d4640,5ff3a402bc4c4da0edd58235,2021-01-05_00h26.03.749,Colour_Similarity_Experiment_v1,2020.1.2,Win32,60,5ff3a352adaa099f7659f8cc,,,,,,,,,,,,,,,,,,,,PF,,,,,,,,3,2.23159,,,,,,,,,,,,,,,,,,,,,,,,,,,,7,-60,-128,1,0,0,response5disk,8,159,4,-9,1,0,0,rectangle,4,-9,1,0,0,5,7,0,0.00057,4,-9,1,0,0,0,158,158,140,1,,,,,,,,,,,,,,,,,,,,,
,,,,,,,,,,,,,,,,,,,,,,,,,,,,,,,,,,,,,,,,,,,5f596c23afaf421c275d4640,5ff3a402bc4c4da0edd58235,2021-01-05_00h26.03.749,Colour_Similarity_Experiment_v1,2020.1.2,Win32,60,5ff3a352adaa099f7659f8cc,,,,,,,,,,,,,,,,,,,,FF,,,,,,,,6,1.819905,,,,,,,,,,,,,,,,,,,,,,,,,,,,1,156,74,1,0,0,response1disk,5,160,2,1,1,0,0,rectangle,2,1,1,0,0,5,6,0,0.00074,2,1,1,0,0,0,159,159,82,1,,,,,,,,,,,,,,,,,,,,,
,,,,,,,,,,,,,,,,,,,,,,,,,,,,,,,,,,,,,,,,,,,5f596c23afaf421c275d4640,5ff3a402bc4c4da0edd58235,2021-01-05_00h26.03.749,Colour_Similarity_Experiment_v1,2020.1.2,Win32,60,5ff3a352adaa099f7659f8cc,,,,,,,,,,,,,,,,,,,,FF,,,,,,,,6,2.663405,,,,,,,,,,,,,,,,,,,,,,,,,,,,6,129,86,1,0,0,response1disk,4,161,10,8,1,0,0,rectangle,10,8,1,0,0,5,7,0,0.000685,10,8,1,0,0,0,160,160,56,1,,,,,,,,,,,,,,,,,,,,,
,,,,,,,,,,,,,,,,,,,,,,,,,,,,,,,,,,,,,,,,,,,5f596c23afaf421c275d4640,5ff3a402bc4c4da0edd58235,2021-01-05_00h26.03.749,Colour_Similarity_Experiment_v1,2020.1.2,Win32,60,5ff3a352adaa099f7659f8cc,,,,,,,,,,,,,,,,,,,,PF,,,,,,,,7,1.22704,,,,,,,,,,,,,,,,,,,,,,,,,,,,7,63,123,1,0,0,response1disk,4,162,-31,4,1,0,0,rectangle,-31,4,1,0,0,5,7,0,0.0006,-31,4,1,0,0,0,161,161,43,1,,,,,,,,,,,,,,,,,,,,,
,,,,,,,,,,,,,,,,,,,,,,,,,,,,,,,,,,,,,,,,,,,5f596c23afaf421c275d4640,5ff3a402bc4c4da0edd58235,2021-01-05_00h26.03.749,Colour_Similarity_Experiment_v1,2020.1.2,Win32,60,5ff3a352adaa099f7659f8cc,,,,,,,,,,,,,,,,,,,,,,,,,,,,,,,,,,,,,,,,,,,,,,,,,,,,,,,,,,,,,,,,,,,,,,,,,,,,,,,,,,,,,,,,,,,,,0,0,0,0,1,,,,,,,,,,,,,,
,,,,,,,,,,,,,,,,,,,,,,,,,,,,,,,,,,,,,,,,,,,5f596c23afaf421c275d4640,5ff3a402bc4c4da0edd58235,2021-01-05_00h26.03.749,Colour_Similarity_Experiment_v1,2020.1.2,Win32,60,5ff3a352adaa099f7659f8cc,,,,,,,,,,,,,,,,,,,,PF,,,,,,,,5,2.345445,,,,,,,,,,,,,,,,,,,,,,,,,,,,8,131,-43,1,0,0,response3disk,2,163,10,3,1,0,0,rectangle,10,3,1,0,0,5,3,0,0.000705,10,3,1,0,0,0,0,0,83,1,,,,,,,,,,,,,,,,,,,,,
,,,,,,,,,,,,,,,,,,,,,,,,,,,,,,,,,,,,,,,,,,,5f596c23afaf421c275d4640,5ff3a402bc4c4da0edd58235,2021-01-05_00h26.03.749,Colour_Similarity_Experiment_v1,2020.1.2,Win32,60,5ff3a352adaa099f7659f8cc,,,,,,,,,,,,,,,,,,,,PF,,,,,,,,4,2.0239,,,,,,,,,,,,,,,,,,,,,,,,,,,,6,39,-138,1,0,0,response3disk,9,164,-6,6,1,0,0,rectangle,-6,6,1,0,0,5,1,0,0.0006,-6,6,1,0,0,0,1,1,45,1,,,,,,,,,,,,,,,,,,,,,
,,,,,,,,,,,,,,,,,,,,,,,,,,,,,,,,,,,,,,,,,,,5f596c23afaf421c275d4640,5ff3a402bc4c4da0edd58235,2021-01-05_00h26.03.749,Colour_Similarity_Experiment_v1,2020.1.2,Win32,60,5ff3a352adaa099f7659f8cc,,,,,,,,,,,,,,,,,,,,PF,,,,,,,,5,3.11,,,,,,,,,,,,,,,,,,,,,,,,,,,,2,106,-40,1,0,0,response3disk,6,165,3,10,1,0,0,rectangle,3,10,1,0,0,5,5,0,0.000635,3,10,1,0,0,0,2,2,113,1,,,,,,,,,,,,,,,,,,,,,
,,,,,,,,,,,,,,,,,,,,,,,,,,,,,,,,,,,,,,,,,,,5f596c23afaf421c275d4640,5ff3a402bc4c4da0edd58235,2021-01-05_00h26.03.749,Colour_Similarity_Experiment_v1,2020.1.2,Win32,60,5ff3a352adaa099f7659f8cc,,,,,,,,,,,,,,,,,,,,FF,,,,,,,,6,2.401225,,,,,,,,,,,,,,,,,,,,,,,,,,,,3,108,70,1,0,0,response1disk,9,166,3,6,1,0,0,rectangle,3,6,1,0,0,5,7,0,0.00065,3,6,1,0,0,0,3,3,143,1,,,,,,,,,,,,,,,,,,,,,
,,,,,,,,,,,,,,,,,,,,,,,,,,,,,,,,,,,,,,,,,,,5f596c23afaf421c275d4640,5ff3a402bc4c4da0edd58235,2021-01-05_00h26.03.749,Colour_Similarity_Experiment_v1,2020.1.2,Win32,60,5ff3a352adaa099f7659f8cc,,,,,,,,,,,,,,,,,,,,FF,,,,,,,,4,3.59124,,,,,,,,,,,,,,,,,,,,,,,,,,,,5,47,-97,1,0,0,response3disk,8,167,16,-3,1,0,0,rectangle,16,-3,1,0,0,5,3,0,0.000585,16,-3,1,0,0,0,4,4,16,1,,,,,,,,,,,,,,,,,,,,,
,,,,,,,,,,,,,,,,,,,,,,,,,,,,,,,,,,,,,,,,,,,5f596c23afaf421c275d4640,5ff3a402bc4c4da0edd58235,2021-01-05_00h26.03.749,Colour_Similarity_Experiment_v1,2020.1.2,Win32,60,5ff3a352adaa099f7659f8cc,,,,,,,,,,,,,,,,,,,,FF,,,,,,,,5,3.39719,,,,,,,,,,,,,,,,,,,,,,,,,,,,4,135,-64,1,0,0,response3disk,7,168,-5,6,1,0,0,rectangle,-5,6,1,0,0,5,2,0,0.001265,-5,6,1,0,0,0,5,5,87,1,,,,,,,,,,,,,,,,,,,,,
,,,,,,,,,,,,,,,,,,,,,,,,,,,,,,,,,,,,,,,,,,,5f596c23afaf421c275d4640,5ff3a402bc4c4da0edd58235,2021-01-05_00h26.03.749,Colour_Similarity_Experiment_v1,2020.1.2,Win32,60,5ff3a352adaa099f7659f8cc,,,,,,,,,,,,,,,,,,,,PF,,,,,,,,3,2.59862,,,,,,,,,,,,,,,,,,,,,,,,,,,,4,-45,-99,1,0,0,response5disk,5,169,-2,-6,1,0,0,rectangle,-2,-6,1,0,0,5,0,0,0.00062,-2,-6,1,0,0,0,6,6,49,1,,,,,,,,,,,,,,,,,,,,,
,,,,,,,,,,,,,,,,,,,,,,,,,,,,,,,,,,,,,,,,,,,5f596c23afaf421c275d4640,5ff3a402bc4c4da0edd58235,2021-01-05_00h26.03.749,Colour_Similarity_Experiment_v1,2020.1.2,Win32,60,5ff3a352adaa099f7659f8cc,,,,,,,,,,,,,,,,,,,,PF,,,,,,,,4,2.61276,,,,,,,,,,,,,,,,,,,,,,,,,,,,9,72,-102,1,0,0,response3disk,1,170,-3,-6,1,0,0,rectangle,-3,-6,1,0,0,5,2,0,0.000625,-3,-6,1,0,0,0,7,7,74,1,,,,,,,,,,,,,,,,,,,,,
,,,,,,,,,,,,,,,,,,,,,,,,,,,,,,,,,,,,,,,,,,,5f596c23afaf421c275d4640,5ff3a402bc4c4da0edd58235,2021-01-05_00h26.03.749,Colour_Similarity_Experiment_v1,2020.1.2,Win32,60,5ff3a352adaa099f7659f8cc,,,,,,,,,,,,,,,,,,,,FF,,,,,,,,3,2.22515,,,,,,,,,,,,,,,,,,,,,,,,,,,,7,-46,-121,1,0,0,response5disk,8,171,-2,-12,1,0,0,rectangle,128,68,1,0,0,6,6,1,2.07686,2,0,1,0,0,0,8,8,97,1,response1disk_3,rectangle,,,,,,,,,,,,,,,,,,,
,,,,,,,,,,,,,,,,,,,,,,,,,,,,,,,,,,,,,,,,,,,5f596c23afaf421c275d4640,5ff3a402bc4c4da0edd58235,2021-01-05_00h26.03.749,Colour_Similarity_Experiment_v1,2020.1.2,Win32,60,5ff3a352adaa099f7659f8cc,,,,,,,,,,,,,,,,,,,,PF,,,,,,,,6,2.99847,,,,,,,,,,,,,,,,,,,,,,,,,,,,1,143,60,1,0,0,response1disk,5,172,1,-5,1,0,0,rectangle,1,-5,1,0,0,6,6,0,0.00061,1,-5,1,0,0,0,9,9,28,1,,,,,,,,,,,,,,,,,,,,,
,,,,,,,,,,,,,,,,,,,,,,,,,,,,,,,,,,,,,,,,,,,5f596c23afaf421c275d4640,5ff3a402bc4c4da0edd58235,2021-01-05_00h26.03.749,Colour_Similarity_Experiment_v1,2020.1.2,Win32,60,5ff3a352adaa099f7659f8cc,,,,,,,,,,,,,,,,,,,,FF,,,,,,,,4,1.724925,,,,,,,,,,,,,,,,,,,,,,,,,,,,6,51,-118,1,0,0,response3disk,8,173,19,6,1,0,0,rectangle,19,6,1,0,0,6,6,0,0.000655,19,6,1,0,0,0,10,10,133,1,,,,,,,,,,,,,,,,,,,,,
,,,,,,,,,,,,,,,,,,,,,,,,,,,,,,,,,,,,,,,,,,,5f596c23afaf421c275d4640,5ff3a402bc4c4da0edd58235,2021-01-05_00h26.03.749,Colour_Similarity_Experiment_v1,2020.1.2,Win32,60,5ff3a352adaa099f7659f8cc,,,,,,,,,,,,,,,,,,,,PF,,,,,,,,3,2.37732,,,,,,,,,,,,,,,,,,,,,,,,,,,,5,-59,-129,1,0,0,response5disk,6,174,11,2,1,0,0,rectangle,11,2,1,0,0,6,2,0,0.000745,11,2,1,0,0,0,11,11,103,1,,,,,,,,,,,,,,,,,,,,,
,,,,,,,,,,,,,,,,,,,,,,,,,,,,,,,,,,,,,,,,,,,5f596c23afaf421c275d4640,5ff3a402bc4c4da0edd58235,2021-01-05_00h26.03.749,Colour_Similarity_Experiment_v1,2020.1.2,Win32,60,5ff3a352adaa099f7659f8cc,,,,,,,,,,,,,,,,,,,,FF,,,,,,,,5,3.778885,,,,,,,,,,,,,,,,,,,,,,,,,,,,9,112,-60,1,0,0,response3disk,6,175,1,1,1,0,0,rectangle,1,1,1,0,0,6,0,0,0.000705,1,1,1,0,0,0,12,12,117,1,,,,,,,,,,,,,,,,,,,,,
,,,,,,,,,,,,,,,,,,,,,,,,,,,,,,,,,,,,,,,,,,,5f596c23afaf421c275d4640,5ff3a402bc4c4da0edd58235,2021-01-05_00h26.03.749,Colour_Similarity_Experiment_v1,2020.1.2,Win32,60,5ff3a352adaa099f7659f8cc,,,,,,,,,,,,,,,,,,,,FF,,,,,,,,5,2.06356,,,,,,,,,,,,,,,,,,,,,,,,,,,,5,100,-34,1,0,0,response3disk,9,176,12,-4,1,0,0,rectangle,12,-4,1,0,0,6,2,0,0.00096,12,-4,1,0,0,0,13,13,61,1,,,,,,,,,,,,,,,,,,,,,
,,,,,,,,,,,,,,,,,,,,,,,,,,,,,,,,,,,,,,,,,,,5f596c23afaf421c275d4640,5ff3a402bc4c4da0edd58235,2021-01-05_00h26.03.749,Colour_Similarity_Experiment_v1,2020.1.2,Win32,60,5ff3a352adaa099f7659f8cc,,,,,,,,,,,,,,,,,,,,FF,,,,,,,,7,2.016745,,,,,,,,,,,,,,,,,,,,,,,,,,,,1,46,114,1,0,0,response1disk,3,177,9,0,1,0,0,rectangle,9,0,1,0,0,6,1,0,0.00095,9,0,1,0,0,0,14,14,99,1,,,,,,,,,,,,,,,,,,,,,
,,,,,,,,,,,,,,,,,,,,,,,,,,,,,,,,,,,,,,,,,,,5f596c23afaf421c275d4640,5ff3a402bc4c4da0edd58235,2021-01-05_00h26.03.749,Colour_Similarity_Experiment_v1,2020.1.2,Win32,60,5ff3a352adaa099f7659f8cc,,,,,,,,,,,,,,,,,,,,PF,,,,,,,,5,1.983695,,,,,,,,,,,,,,,,,,,,,,,,,,,,2,134,-34,1,0,0,response3disk,8,178,10,-6,1,0,0,rectangle,10,-6,1,0,0,6,5,0,0.00061,10,-6,1,0,0,0,15,15,52,1,,,,,,,,,,,,,,,,,,,,,
,,,,,,,,,,,,,,,,,,,,,,,,,,,,,,,,,,,,,,,,,,,5f596c23afaf421c275d4640,5ff3a402bc4c4da0edd58235,2021-01-05_00h26.03.749,Colour_Similarity_Experiment_v1,2020.1.2,Win32,60,5ff3a352adaa099f7659f8cc,,,,,,,,,,,,,,,,,,,,PF,,,,,,,,6,1.958165,,,,,,,,,,,,,,,,,,,,,,,,,,,,3,116,55,1,0,0,response1disk,1,179,1,-8,1,0,0,rectangle,1,-8,1,0,0,6,6,0,0.00063,1,-8,1,0,0,0,16,16,96,1,,,,,,,,,,,,,,,,,,,,,
,,,,,,,,,,,,,,,,,,,,,,,,,,,,,,,,,,,,,,,,,,,5f596c23afaf421c275d4640,5ff3a402bc4c4da0edd58235,2021-01-05_00h26.03.749,Colour_Similarity_Experiment_v1,2020.1.2,Win32,60,5ff3a352adaa099f7659f8cc,,,,,,,,,,,,,,,,,,,,PF,,,,,,,,4,3.347335,,,,,,,,,,,,,,,,,,,,,,,,,,,,2,81,-122,1,0,0,response3disk,2,180,5,-12,1,0,0,rectangle,5,-12,1,0,0,6,0,0,0.000855,5,-12,1,0,0,0,17,17,14,1,,,,,,,,,,,,,,,,,,,,,
,,,,,,,,,,,,,,,,,,,,,,,,,,,,,,,,,,,,,,,,,,,5f596c23afaf421c275d4640,5ff3a402bc4c4da0edd58235,2021-01-05_00h26.03.749,Colour_Similarity_Experiment_v1,2020.1.2,Win32,60,5ff3a352adaa099f7659f8cc,,,,,,,,,,,,,,,,,,,,FF,,,,,,,,1,2.524955,,,,,,,,,,,,,,,,,,,,,,,,,,,,3,-121,49,1,0,0,response7disk,4,181,10,0,1,0,0,rectangle,10,0,1,0,0,6,0,0,0.000805,10,0,1,0,0,0,18,18,110,1,,,,,,,,,,,,,,,,,,,,,
,,,,,,,,,,,,,,,,,,,,,,,,,,,,,,,,,,,,,,,,,,,5f596c23afaf421c275d4640,5ff3a402bc4c4da0edd58235,2021-01-05_00h26.03.749,Colour_Similarity_Experiment_v1,2020.1.2,Win32,60,5ff3a352adaa099f7659f8cc,,,,,,,,,,,,,,,,,,,,FF,,,,,,,,4,2.924145,,,,,,,,,,,,,,,,,,,,,,,,,,,,2,38,-93,1,0,0,response3disk,5,182,-9,3,1,0,0,rectangle,-9,3,1,0,0,6,3,0,0.000665,-9,3,1,0,0,0,19,19,80,1,,,,,,,,,,,,,,,,,,,,,
,,,,,,,,,,,,,,,,,,,,,,,,,,,,,,,,,,,,,,,,,,,5f596c23afaf421c275d4640,5ff3a402bc4c4da0edd58235,2021-01-05_00h26.03.749,Colour_Similarity_Experiment_v1,2020.1.2,Win32,60,5ff3a352adaa099f7659f8cc,,,,,,,,,,,,,,,,,,,,FF,,,,,,,,4,3.25711,,,,,,,,,,,,,,,,,,,,,,,,,,,,2,50,-115,1,0,0,response3disk,1,183,1,1,1,0,0,rectangle,1,1,1,0,0,6,0,0,0.000595,1,1,1,0,0,0,20,20,85,1,,,,,,,,,,,,,,,,,,,,,
,,,,,,,,,,,,,,,,,,,,,,,,,,,,,,,,,,,,,,,,,,,5f596c23afaf421c275d4640,5ff3a402bc4c4da0edd58235,2021-01-05_00h26.03.749,Colour_Similarity_Experiment_v1,2020.1.2,Win32,60,5ff3a352adaa099f7659f8cc,,,,,,,,,,,,,,,,,,,,PF,,,,,,,,3,1.99529,,,,,,,,,,,,,,,,,,,,,,,,,,,,7,-60,-127,1,0,0,response5disk,5,184,7,3,1,0,0,rectangle,7,3,1,0,0,6,1,0,0.001275,7,3,1,0,0,0,21,21,92,1,,,,,,,,,,,,,,,,,,,,,
,,,,,,,,,,,,,,,,,,,,,,,,,,,,,,,,,,,,,,,,,,,5f596c23afaf421c275d4640,5ff3a402bc4c4da0edd58235,2021-01-05_00h26.03.749,Colour_Similarity_Experiment_v1,2020.1.2,Win32,60,5ff3a352adaa099f7659f8cc,,,,,,,,,,,,,,,,,,,,FF,,,,,,,,7,1.63701,,,,,,,,,,,,,,,,,,,,,,,,,,,,8,26,119,1,0,0,response1disk,3,185,-10,2,1,0,0,rectangle,-10,2,1,0,0,6,4,0,0.0006,-10,2,1,0,0,0,22,22,154,1,,,,,,,,,,,,,,,,,,,,,
,,,,,,,,,,,,,,,,,,,,,,,,,,,,,,,,,,,,,,,,,,,5f596c23afaf421c275d4640,5ff3a402bc4c4da0edd58235,2021-01-05_00h26.03.749,Colour_Similarity_Experiment_v1,2020.1.2,Win32,60,5ff3a352adaa099f7659f8cc,,,,,,,,,,,,,,,,,,,,FF,,,,,,,,2,2.072805,,,,,,,,,,,,,,,,,,,,,,,,,,,,5,-110,-56,1,0,0,response5disk,4,186,13,-1,1,0,0,rectangle,13,-1,1,0,0,6,6,0,0.00056,13,-1,1,0,0,0,23,23,8,1,,,,,,,,,,,,,,,,,,,,,
,,,,,,,,,,,,,,,,,,,,,,,,,,,,,,,,,,,,,,,,,,,5f596c23afaf421c275d4640,5ff3a402bc4c4da0edd58235,2021-01-05_00h26.03.749,Colour_Similarity_Experiment_v1,2020.1.2,Win32,60,5ff3a352adaa099f7659f8cc,,,,,,,,,,,,,,,,,,,,FF,,,,,,,,6,2.4491,,,,,,,,,,,,,,,,,,,,,,,,,,,,3,125,52,1,0,0,response1disk,2,187,8,0,1,0,0,rectangle,8,0,1,0,0,6,6,0,0.000655,8,0,1,0,0,0,24,24,93,1,,,,,,,,,,,,,,,,,,,,,
,,,,,,,,,,,,,,,,,,,,,,,,,,,,,,,,,,,,,,,,,,,5f596c23afaf421c275d4640,5ff3a402bc4c4da0edd58235,2021-01-05_00h26.03.749,Colour_Similarity_Experiment_v1,2020.1.2,Win32,60,5ff3a352adaa099f7659f8cc,,,,,,,,,,,,,,,,,,,,FF,,,,,,,,7,1.95346,,,,,,,,,,,,,,,,,,,,,,,,,,,,4,66,120,1,0,0,response1disk,2,188,7,-4,1,0,0,rectangle,7,-4,1,0,0,6,2,0,0.00166,7,-4,1,0,0,0,25,25,13,1,,,,,,,,,,,,,,,,,,,,,
,,,,,,,,,,,,,,,,,,,,,,,,,,,,,,,,,,,,,,,,,,,5f596c23afaf421c275d4640,5ff3a402bc4c4da0edd58235,2021-01-05_00h26.03.749,Colour_Similarity_Experiment_v1,2020.1.2,Win32,60,5ff3a352adaa099f7659f8cc,,,,,,,,,,,,,,,,,,,,PF,,,,,,,,3,1.92383,,,,,,,,,,,,,,,,,,,,,,,,,,,,6,-53,-131,1,0,0,response5disk,7,189,6,-11,1,0,0,rectangle,6,-11,1,0,0,6,0,0,0.00093,6,-11,1,0,0,0,26,26,50,1,,,,,,,,,,,,,,,,,,,,,
,,,,,,,,,,,,,,,,,,,,,,,,,,,,,,,,,,,,,,,,,,,5f596c23afaf421c275d4640,5ff3a402bc4c4da0edd58235,2021-01-05_00h26.03.749,Colour_Similarity_Experiment_v1,2020.1.2,Win32,60,5ff3a352adaa099f7659f8cc,,,,,,,,,,,,,,,,,,,,PF,,,,,,,,3,1.582075,,,,,,,,,,,,,,,,,,,,,,,,,,,,9,-48,-106,1,0,0,response5disk,8,190,14,-8,1,0,0,rectangle,14,-8,1,0,0,6,0,0,0.000615,14,-8,1,0,0,0,27,27,67,1,,,,,,,,,,,,,,,,,,,,,
,,,,,,,,,,,,,,,,,,,,,,,,,,,,,,,,,,,,,,,,,,,5f596c23afaf421c275d4640,5ff3a402bc4c4da0edd58235,2021-01-05_00h26.03.749,Colour_Similarity_Experiment_v1,2020.1.2,Win32,60,5ff3a352adaa099f7659f8cc,,,,,,,,,,,,,,,,,,,,PF,,,,,,,,0,1.53117,,,,,,,,,,,,,,,,,,,,,,,,,,,,3,-56,105,1,0,0,response7disk,3,191,-6,4,1,0,0,rectangle,-6,4,1,0,0,6,1,0,0.000745,-6,4,1,0,0,0,28,28,4,1,,,,,,,,,,,,,,,,,,,,,
,,,,,,,,,,,,,,,,,,,,,,,,,,,,,,,,,,,,,,,,,,,5f596c23afaf421c275d4640,5ff3a402bc4c4da0edd58235,2021-01-05_00h26.03.749,Colour_Similarity_Experiment_v1,2020.1.2,Win32,60,5ff3a352adaa099f7659f8cc,,,,,,,,,,,,,,,,,,,,PF,,,,,,,,7,2.197915,,,,,,,,,,,,,,,,,,,,,,,,,,,,3,72,118,1,0,0,response1disk,2,192,20,18,1,0,0,rectangle,-48,-117,1,0,0,3,3,1,2.2659,-11,-4,1,0,0,0,29,29,36,1,response5disk_3,rectangle,,,,,,,,,,,,,,,,,,,
,,,,,,,,,,,,,,,,,,,,,,,,,,,,,,,,,,,,,,,,,,,5f596c23afaf421c275d4640,5ff3a402bc4c4da0edd58235,2021-01-05_00h26.03.749,Colour_Similarity_Experiment_v1,2020.1.2,Win32,60,5ff3a352adaa099f7659f8cc,,,,,,,,,,,,,,,,,,,,PF,,,,,,,,5,2.88637,,,,,,,,,,,,,,,,,,,,,,,,,,,,1,141,-57,1,0,0,response3disk,8,193,6,5,1,0,0,rectangle,6,5,1,0,0,3,7,0,0.000765,6,5,1,0,0,0,30,30,65,1,,,,,,,,,,,,,,,,,,,,,
,,,,,,,,,,,,,,,,,,,,,,,,,,,,,,,,,,,,,,,,,,,5f596c23afaf421c275d4640,5ff3a402bc4c4da0edd58235,2021-01-05_00h26.03.749,Colour_Similarity_Experiment_v1,2020.1.2,Win32,60,5ff3a352adaa099f7659f8cc,,,,,,,,,,,,,,,,,,,,FF,,,,,,,,6,2.176705,,,,,,,,,,,,,,,,,,,,,,,,,,,,3,147,90,1,0,0,response1disk,6,194,-16,-11,1,0,0,rectangle,-16,-11,1,0,0,3,1,0,0.000635,-16,-11,1,0,0,0,31,31,95,1,,,,,,,,,,,,,,,,,,,,,
,,,,,,,,,,,,,,,,,,,,,,,,,,,,,,,,,,,,,,,,,,,5f596c23afaf421c275d4640,5ff3a402bc4c4da0edd58235,2021-01-05_00h26.03.749,Colour_Similarity_Experiment_v1,2020.1.2,Win32,60,5ff3a352adaa099f7659f8cc,,,,,,,,,,,,,,,,,,,,FF,,,,,,,,0,1.204325,,,,,,,,,,,,,,,,,,,,,,,,,,,,1,-35,126,1,0,0,response7disk,1,195,6,2,1,0,0,rectangle,6,2,1,0,0,3,5,0,0.001005,6,2,1,0,0,0,32,32,151,1,,,,,,,,,,,,,,,,,,,,,
,,,,,,,,,,,,,,,,,,,,,,,,,,,,,,,,,,,,,,,,,,,5f596c23afaf421c275d4640,5ff3a402bc4c4da0edd58235,2021-01-05_00h26.03.749,Colour_Similarity_Experiment_v1,2020.1.2,Win32,60,5ff3a352adaa099f7659f8cc,,,,,,,,,,,,,,,,,,,,PF,,,,,,,,4,2.10884,,,,,,,,,,,,,,,,,,,,,,,,,,,,8,63,-120,1,0,0,response3disk,7,196,6,-2,1,0,0,rectangle,6,-2,1,0,0,3,6,0,0.000955,6,-2,1,0,0,0,33,33,23,1,,,,,,,,,,,,,,,,,,,,,
,,,,,,,,,,,,,,,,,,,,,,,,,,,,,,,,,,,,,,,,,,,5f596c23afaf421c275d4640,5ff3a402bc4c4da0edd58235,2021-01-05_00h26.03.749,Colour_Similarity_Experiment_v1,2020.1.2,Win32,60,5ff3a352adaa099f7659f8cc,,,,,,,,,,,,,,,,,,,,PF,,,,,,,,2,1.743455,,,,,,,,,,,,,,,,,,,,,,,,,,,,3,-113,-50,1,0,0,response5disk,4,197,-3,-1,1,0,0,rectangle,-3,-1,1,0,0,3,6,0,0.00072,-3,-1,1,0,0,0,34,34,30,1,,,,,,,,,,,,,,,,,,,,,
,,,,,,,,,,,,,,,,,,,,,,,,,,,,,,,,,,,,,,,,,,,5f596c23afaf421c275d4640,5ff3a402bc4c4da0edd58235,2021-01-05_00h26.03.749,Colour_Similarity_Experiment_v1,2020.1.2,Win32,60,5ff3a352adaa099f7659f8cc,,,,,,,,,,,,,,,,,,,,FF,,,,,,,,6,1.7376,,,,,,,,,,,,,,,,,,,,,,,,,,,,2,118,87,1,0,0,response1disk,8,198,4,5,1,0,0,rectangle,4,5,1,0,0,3,5,0,0.001795,4,5,1,0,0,0,35,35,62,1,,,,,,,,,,,,,,,,,,,,,
,,,,,,,,,,,,,,,,,,,,,,,,,,,,,,,,,,,,,,,,,,,5f596c23afaf421c275d4640,5ff3a402bc4c4da0edd58235,2021-01-05_00h26.03.749,Colour_Similarity_Experiment_v1,2020.1.2,Win32,60,5ff3a352adaa099f7659f8cc,,,,,,,,,,,,,,,,,,,,PF,,,,,,,,7,1.2124,,,,,,,,,,,,,,,,,,,,,,,,,,,,5,79,134,1,0,0,response1disk,2,199,-10,0,1,0,0,rectangle,-10,0,1,0,0,3,0,0,0.00056,-10,0,1,0,0,0,36,36,129,1,,,,,,,,,,,,,,,,,,,,,
,,,,,,,,,,,,,,,,,,,,,,,,,,,,,,,,,,,,,,,,,,,5f596c23afaf421c275d4640,5ff3a402bc4c4da0edd58235,2021-01-05_00h26.03.749,Colour_Similarity_Experiment_v1,2020.1.2,Win32,60,5ff3a352adaa099f7659f8cc,,,,,,,,,,,,,,,,,,,,FF,,,,,,,,3,1.55509,,,,,,,,,,,,,,,,,,,,,,,,,,,,5,-44,-136,1,0,0,response5disk,7,200,4,-3,1,0,0,rectangle,4,-3,1,0,0,3,0,0,0.002285,4,-3,1,0,0,0,37,37,7,1,,,,,,,,,,,,,,,,,,,,,
,,,,,,,,,,,,,,,,,,,,,,,,,,,,,,,,,,,,,,,,,,,5f596c23afaf421c275d4640,5ff3a402bc4c4da0edd58235,2021-01-05_00h26.03.749,Colour_Similarity_Experiment_v1,2020.1.2,Win32,60,5ff3a352adaa099f7659f8cc,,,,,,,,,,,,,,,,,,,,FF,,,,,,,,4,1.6615,,,,,,,,,,,,,,,,,,,,,,,,,,,,9,73,-128,1,0,0,response3disk,8,201,25,0,1,0,0,rectangle,25,0,1,0,0,3,2,0,0.000885,25,0,1,0,0,0,38,38,6,1,,,,,,,,,,,,,,,,,,,,,
,,,,,,,,,,,,,,,,,,,,,,,,,,,,,,,,,,,,,,,,,,,5f596c23afaf421c275d4640,5ff3a402bc4c4da0edd58235,2021-01-05_00h26.03.749,Colour_Similarity_Experiment_v1,2020.1.2,Win32,60,5ff3a352adaa099f7659f8cc,,,,,,,,,,,,,,,,,,,,FF,,,,,,,,7,1.33057,,,,,,,,,,,,,,,,,,,,,,,,,,,,7,47,147,1,0,0,response1disk,2,202,-14,14,1,0,0,rectangle,-14,14,1,0,0,3,2,0,0.00056,-14,14,1,0,0,0,39,39,138,1,,,,,,,,,,,,,,,,,,,,,
,,,,,,,,,,,,,,,,,,,,,,,,,,,,,,,,,,,,,,,,,,,5f596c23afaf421c275d4640,5ff3a402bc4c4da0edd58235,2021-01-05_00h26.03.749,Colour_Similarity_Experiment_v1,2020.1.2,Win32,60,5ff3a352adaa099f7659f8cc,,,,,,,,,,,,,,,,,,,,FF,,,,,,,,7,1.113205,,,,,,,,,,,,,,,,,,,,,,,,,,,,1,63,120,1,0,0,response1disk,4,203,5,14,1,0,0,rectangle,5,14,1,0,0,3,1,0,0.000785,5,14,1,0,0,0,40,40,135,1,,,,,,,,,,,,,,,,,,,,,
,,,,,,,,,,,,,,,,,,,,,,,,,,,,,,,,,,,,,,,,,,,5f596c23afaf421c275d4640,5ff3a402bc4c4da0edd58235,2021-01-05_00h26.03.749,Colour_Similarity_Experiment_v1,2020.1.2,Win32,60,5ff3a352adaa099f7659f8cc,,,,,,,,,,,,,,,,,,,,FF,,,,,,,,7,1.51131,,,,,,,,,,,,,,,,,,,,,,,,,,,,4,69,116,1,0,0,response1disk,6,204,-15,-4,1,0,0,rectangle,-15,-4,1,0,0,3,2,0,0.00097,-15,-4,1,0,0,0,41,41,122,1,,,,,,,,,,,,,,,,,,,,,
,,,,,,,,,,,,,,,,,,,,,,,,,,,,,,,,,,,,,,,,,,,5f596c23afaf421c275d4640,5ff3a402bc4c4da0edd58235,2021-01-05_00h26.03.749,Colour_Similarity_Experiment_v1,2020.1.2,Win32,60,5ff3a352adaa099f7659f8cc,,,,,,,,,,,,,,,,,,,,PF,,,,,,,,7,1.95396,,,,,,,,,,,,,,,,,,,,,,,,,,,,6,56,115,1,0,0,response1disk,3,205,3,-5,1,0,0,rectangle,3,-5,1,0,0,3,7,0,0.000595,3,-5,1,0,0,0,42,42,26,1,,,,,,,,,,,,,,,,,,,,,
,,,,,,,,,,,,,,,,,,,,,,,,,,,,,,,,,,,,,,,,,,,5f596c23afaf421c275d4640,5ff3a402bc4c4da0edd58235,2021-01-05_00h26.03.749,Colour_Similarity_Experiment_v1,2020.1.2,Win32,60,5ff3a352adaa099f7659f8cc,,,,,,,,,,,,,,,,,,,,FF,,,,,,,,0,1.4761,,,,,,,,,,,,,,,,,,,,,,,,,,,,4,-59,119,1,0,0,response7disk,4,206,11,7,1,0,0,rectangle,11,7,1,0,0,3,0,0,0.00056,11,7,1,0,0,0,43,43,84,1,,,,,,,,,,,,,,,,,,,,,
,,,,,,,,,,,,,,,,,,,,,,,,,,,,,,,,,,,,,,,,,,,5f596c23afaf421c275d4640,5ff3a402bc4c4da0edd58235,2021-01-05_00h26.03.749,Colour_Similarity_Experiment_v1,2020.1.2,Win32,60,5ff3a352adaa099f7659f8cc,,,,,,,,,,,,,,,,,,,,FF,,,,,,,,5,1.57114,,,,,,,,,,,,,,,,,,,,,,,,,,,,8,134,-31,1,0,0,response3disk,1,207,-4,7,1,0,0,rectangle,-4,7,1,0,0,3,3,0,0.000665,-4,7,1,0,0,0,44,44,20,1,,,,,,,,,,,,,,,,,,,,,
,,,,,,,,,,,,,,,,,,,,,,,,,,,,,,,,,,,,,,,,,,,5f596c23afaf421c275d4640,5ff3a402bc4c4da0edd58235,2021-01-05_00h26.03.749,Colour_Similarity_Experiment_v1,2020.1.2,Win32,60,5ff3a352adaa099f7659f8cc,,,,,,,,,,,,,,,,,,,,FF,,,,,,,,3,1.764245,,,,,,,,,,,,,,,,,,,,,,,,,,,,3,-92,-137,1,0,0,response5disk,5,208,7,-5,1,0,0,rectangle,7,-5,1,0,0,3,2,0,0.000585,7,-5,1,0,0,0,45,45,101,1,,,,,,,,,,,,,,,,,,,,,
,,,,,,,,,,,,,,,,,,,,,,,,,,,,,,,,,,,,,,,,,,,5f596c23afaf421c275d4640,5ff3a402bc4c4da0edd58235,2021-01-05_00h26.03.749,Colour_Similarity_Experiment_v1,2020.1.2,Win32,60,5ff3a352adaa099f7659f8cc,,,,,,,,,,,,,,,,,,,,FF,,,,,,,,0,1.103775,,,,,,,,,,,,,,,,,,,,,,,,,,,,9,-61,122,1,0,0,response7disk,9,209,-14,-4,1,0,0,rectangle,-14,-4,1,0,0,3,0,0,0.001,-14,-4,1,0,0,0,46,46,17,1,,,,,,,,,,,,,,,,,,,,,
,,,,,,,,,,,,,,,,,,,,,,,,,,,,,,,,,,,,,,,,,,,5f596c23afaf421c275d4640,5ff3a402bc4c4da0edd58235,2021-01-05_00h26.03.749,Colour_Similarity_Experiment_v1,2020.1.2,Win32,60,5ff3a352adaa099f7659f8cc,,,,,,,,,,,,,,,,,,,,FF,,,,,,,,6,1.916075,,,,,,,,,,,,,,,,,,,,,,,,,,,,6,101,54,1,0,0,response1disk,1,210,-11,3,1,0,0,rectangle,-11,3,1,0,0,3,2,0,0.000635,-11,3,1,0,0,0,47,47,5,1,,,,,,,,,,,,,,,,,,,,,
,,,,,,,,,,,,,,,,,,,,,,,,,,,,,,,,,,,,,,,,,,,5f596c23afaf421c275d4640,5ff3a402bc4c4da0edd58235,2021-01-05_00h26.03.749,Colour_Similarity_Experiment_v1,2020.1.2,Win32,60,5ff3a352adaa099f7659f8cc,,,,,,,,,,,,,,,,,,,,FF,,,,,,,,4,2.704895,,,,,,,,,,,,,,,,,,,,,,,,,,,,9,60,-137,1,0,0,response3disk,1,211,-3,8,1,0,0,rectangle,-3,8,1,0,0,3,3,0,0.00124,-3,8,1,0,0,0,48,48,111,1,,,,,,,,,,,,,,,,,,,,,
,,,,,,,,,,,,,,,,,,,,,,,,,,,,,,,,,,,,,,,,,,,5f596c23afaf421c275d4640,5ff3a402bc4c4da0edd58235,2021-01-05_00h26.03.749,Colour_Similarity_Experiment_v1,2020.1.2,Win32,60,5ff3a352adaa099f7659f8cc,,,,,,,,,,,,,,,,,,,,FF,,,,,,,,3,1.77388,,,,,,,,,,,,,,,,,,,,,,,,,,,,5,-49,-114,1,0,0,response5disk,3,212,19,0,1,0,0,rectangle,19,0,1,0,0,3,5,0,0.000845,19,0,1,0,0,0,49,49,25,1,,,,,,,,,,,,,,,,,,,,,
,,,,,,,,,,,,,,,,,,,,,,,,,,,,,,,,,,,,,,,,,,,5f596c23afaf421c275d4640,5ff3a402bc4c4da0edd58235,2021-01-05_00h26.03.749,Colour_Similarity_Experiment_v1,2020.1.2,Win32,60,5ff3a352adaa099f7659f8cc,,,,,,,,,,,,,,,,,,,,PF,,,,,,,,5,1.8229,,,,,,,,,,,,,,,,,,,,,,,,,,,,2,84,-36,1,0,0,response3disk,1,213,-24,4,1,0,0,rectangle,-24,4,1,0,0,3,3,0,0.000595,-24,4,1,0,0,0,50,50,9,1,,,,,,,,,,,,,,,,,,,,,
,,,,,,,,,,,,,,,,,,,,,,,,,,,,,,,,,,,,,,,,,,,5f596c23afaf421c275d4640,5ff3a402bc4c4da0edd58235,2021-01-05_00h26.03.749,Colour_Similarity_Experiment_v1,2020.1.2,Win32,60,5ff3a352adaa099f7659f8cc,,,,,,,,,,,,,,,,,,,,FF,,,,,,,,7,2.519535,,,,,,,,,,,,,,,,,,,,,,,,,,,,1,71,114,1,0,0,response1disk,8,214,13,-1,1,0,0,rectangle,13,-1,1,0,0,3,2,0,0.00129,13,-1,1,0,0,0,51,51,27,1,,,,,,,,,,,,,,,,,,,,,
,,,,,,,,,,,,,,,,,,,,,,,,,,,,,,,,,,,,,,,,,,,5f596c23afaf421c275d4640,5ff3a402bc4c4da0edd58235,2021-01-05_00h26.03.749,Colour_Similarity_Experiment_v1,2020.1.2,Win32,60,5ff3a352adaa099f7659f8cc,,,,,,,,,,,,,,,,,,,,PF,,,,,,,,0,1.252795,,,,,,,,,,,,,,,,,,,,,,,,,,,,6,-40,124,1,0,0,response7disk,6,215,4,-5,1,0,0,rectangle,4,-5,1,0,0,3,6,0,0.001065,4,-5,1,0,0,0,52,52,0,1,,,,,,,,,,,,,,,,,,,,,
,,,,,,,,,,,,,,,,,,,,,,,,,,,,,,,,,,,,,,,,,,,5f596c23afaf421c275d4640,5ff3a402bc4c4da0edd58235,2021-01-05_00h26.03.749,Colour_Similarity_Experiment_v1,2020.1.2,Win32,60,5ff3a352adaa099f7659f8cc,,,,,,,,,,,,,,,,,,,,FF,,,,,,,,7,1.457205,,,,,,,,,,,,,,,,,,,,,,,,,,,,5,40,136,1,0,0,response1disk,2,216,-10,-6,1,0,0,rectangle,-72,-124,1,0,0,3,3,1,2.654735,14,-1,1,0,0,0,53,53,55,1,response5disk_3,rectangle,,,,,,,,,,,,,,,,,,,
,,,,,,,,,,,,,,,,,,,,,,,,,,,,,,,,,,,,,,,,,,,5f596c23afaf421c275d4640,5ff3a402bc4c4da0edd58235,2021-01-05_00h26.03.749,Colour_Similarity_Experiment_v1,2020.1.2,Win32,60,5ff3a352adaa099f7659f8cc,,,,,,,,,,,,,,,,,,,,PF,,,,,,,,4,1.97953,,,,,,,,,,,,,,,,,,,,,,,,,,,,8,37,-96,1,0,0,response3disk,6,217,3,-1,1,0,0,rectangle,42,137,1,0,0,7,7,1,1.70825,9,-3,1,0,0,0,54,54,161,1,response1disk_3,rectangle,,,,,,,,,,,,,,,,,,,
,,,,,,,,,,,,,,,,,,,,,,,,,,,,,,,,,,,,,,,,,,,5f596c23afaf421c275d4640,5ff3a402bc4c4da0edd58235,2021-01-05_00h26.03.749,Colour_Similarity_Experiment_v1,2020.1.2,Win32,60,5ff3a352adaa099f7659f8cc,,,,,,,,,,,,,,,,,,,,PF,,,,,,,,5,2.027055,,,,,,,,,,,,,,,,,,,,,,,,,,,,7,108,-35,1,0,0,response3disk,4,218,14,2,1,0,0,rectangle,14,2,1,0,0,7,3,0,0.001115,14,2,1,0,0,0,55,55,43,1,,,,,,,,,,,,,,,,,,,,,
,,,,,,,,,,,,,,,,,,,,,,,,,,,,,,,,,,,,,,,,,,,5f596c23afaf421c275d4640,5ff3a402bc4c4da0edd58235,2021-01-05_00h26.03.749,Colour_Similarity_Experiment_v1,2020.1.2,Win32,60,5ff3a352adaa099f7659f8cc,,,,,,,,,,,,,,,,,,,,PF,,,,,,,,5,1.688975,,,,,,,,,,,,,,,,,,,,,,,,,,,,7,100,-39,1,0,0,response3disk,3,219,-7,6,1,0,0,rectangle,-7,6,1,0,0,7,2,0,0.00075,-7,6,1,0,0,0,56,56,81,1,,,,,,,,,,,,,,,,,,,,,
,,,,,,,,,,,,,,,,,,,,,,,,,,,,,,,,,,,,,,,,,,,5f596c23afaf421c275d4640,5ff3a402bc4c4da0edd58235,2021-01-05_00h26.03.749,Colour_Similarity_Experiment_v1,2020.1.2,Win32,60,5ff3a352adaa099f7659f8cc,,,,,,,,,,,,,,,,,,,,FF,,,,,,,,5,1.761165,,,,,,,,,,,,,,,,,,,,,,,,,,,,3,122,-32,1,0,0,response3disk,7,220,-1,6,1,0,0,rectangle,-1,6,1,0,0,7,3,0,0.00177,-1,6,1,0,0,0,57,57,118,1,,,,,,,,,,,,,,,,,,,,,
,,,,,,,,,,,,,,,,,,,,,,,,,,,,,,,,,,,,,,,,,,,5f596c23afaf421c275d4640,5ff3a402bc4c4da0edd58235,2021-01-05_00h26.03.749,Colour_Similarity_Experiment_v1,2020.1.2,Win32,60,5ff3a352adaa099f7659f8cc,,,,,,,,,,,,,,,,,,,,PF,,,,,,,,7,1.45852,,,,,,,,,,,,,,,,,,,,,,,,,,,,9,54,119,1,0,0,response1disk,4,221,-2,-4,1,0,0,rectangle,-2,-4,1,0,0,7,1,0,0.00057,-2,-4,1,0,0,0,58,58,114,1,,,,,,,,,,,,,,,,,,,,,
,,,,,,,,,,,,,,,,,,,,,,,,,,,,,,,,,,,,,,,,,,,5f596c23afaf421c275d4640,5ff3a402bc4c4da0edd58235,2021-01-05_00h26.03.749,Colour_Similarity_Experiment_v1,2020.1.2,Win32,60,5ff3a352adaa099f7659f8cc,,,,,,,,,,,,,,,,,,,,FF,,,,,,,,6,1.806865,,,,,,,,,,,,,,,,,,,,,,,,,,,,3,101,57,1,0,0,response1disk,1,222,7,7,1,0,0,rectangle,7,7,1,0,0,7,0,0,0.00055,7,7,1,0,0,0,59,59,125,1,,,,,,,,,,,,,,,,,,,,,
,,,,,,,,,,,,,,,,,,,,,,,,,,,,,,,,,,,,,,,,,,,5f596c23afaf421c275d4640,5ff3a402bc4c4da0edd58235,2021-01-05_00h26.03.749,Colour_Similarity_Experiment_v1,2020.1.2,Win32,60,5ff3a352adaa099f7659f8cc,,,,,,,,,,,,,,,,,,,,PF,,,,,,,,5,3.153555,,,,,,,,,,,,,,,,,,,,,,,,,,,,8,109,-52,1,0,0,response3disk,1,223,15,6,1,0,0,rectangle,15,6,1,0,0,7,6,0,0.00076,15,6,1,0,0,0,60,60,57,1,,,,,,,,,,,,,,,,,,,,,
,,,,,,,,,,,,,,,,,,,,,,,,,,,,,,,,,,,,,,,,,,,5f596c23afaf421c275d4640,5ff3a402bc4c4da0edd58235,2021-01-05_00h26.03.749,Colour_Similarity_Experiment_v1,2020.1.2,Win32,60,5ff3a352adaa099f7659f8cc,,,,,,,,,,,,,,,,,,,,PF,,,,,,,,5,1.34493,,,,,,,,,,,,,,,,,,,,,,,,,,,,5,76,-23,1,0,0,response3disk,1,224,-8,6,1,0,0,rectangle,70,128,1,0,0,7,7,1,1.421585,0,-6,1,0,0,0,61,61,159,1,response1disk_3,rectangle,,,,,,,,,,,,,,,,,,,
,,,,,,,,,,,,,,,,,,,,,,,,,,,,,,,,,,,,,,,,,,,5f596c23afaf421c275d4640,5ff3a402bc4c4da0edd58235,2021-01-05_00h26.03.749,Colour_Similarity_Experiment_v1,2020.1.2,Win32,60,5ff3a352adaa099f7659f8cc,,,,,,,,,,,,,,,,,,,,FF,,,,,,,,6,1.633335,,,,,,,,,,,,,,,,,,,,,,,,,,,,2,115,38,1,0,0,response1disk,9,225,13,8,1,0,0,rectangle,13,8,1,0,0,7,0,0,0.00058,13,8,1,0,0,0,62,62,72,1,,,,,,,,,,,,,,,,,,,,,
,,,,,,,,,,,,,,,,,,,,,,,,,,,,,,,,,,,,,,,,,,,5f596c23afaf421c275d4640,5ff3a402bc4c4da0edd58235,2021-01-05_00h26.03.749,Colour_Similarity_Experiment_v1,2020.1.2,Win32,60,5ff3a352adaa099f7659f8cc,,,,,,,,,,,,,,,,,,,,PF,,,,,,,,6,1.44021,,,,,,,,,,,,,,,,,,,,,,,,,,,,2,121,50,1,0,0,response1disk,7,226,12,8,1,0,0,rectangle,12,8,1,0,0,7,5,0,0.000555,12,8,1,0,0,0,63,63,107,1,,,,,,,,,,,,,,,,,,,,,
,,,,,,,,,,,,,,,,,,,,,,,,,,,,,,,,,,,,,,,,,,,5f596c23afaf421c275d4640,5ff3a402bc4c4da0edd58235,2021-01-05_00h26.03.749,Colour_Similarity_Experiment_v1,2020.1.2,Win32,60,5ff3a352adaa099f7659f8cc,,,,,,,,,,,,,,,,,,,,FF,,,,,,,,4,1.906425,,,,,,,,,,,,,,,,,,,,,,,,,,,,8,58,-134,1,0,0,response3disk,5,227,0,-4,1,0,0,rectangle,0,-4,1,0,0,7,5,0,0.00158,0,-4,1,0,0,0,64,64,152,1,,,,,,,,,,,,,,,,,,,,,
,,,,,,,,,,,,,,,,,,,,,,,,,,,,,,,,,,,,,,,,,,,5f596c23afaf421c275d4640,5ff3a402bc4c4da0edd58235,2021-01-05_00h26.03.749,Colour_Similarity_Experiment_v1,2020.1.2,Win32,60,5ff3a352adaa099f7659f8cc,,,,,,,,,,,,,,,,,,,,PF,,,,,,,,7,1.07385,,,,,,,,,,,,,,,,,,,,,,,,,,,,9,61,138,1,0,0,response1disk,2,228,-6,4,1,0,0,rectangle,-6,4,1,0,0,7,2,0,0.000725,-6,4,1,0,0,0,65,65,157,1,,,,,,,,,,,,,,,,,,,,,
,,,,,,,,,,,,,,,,,,,,,,,,,,,,,,,,,,,,,,,,,,,5f596c23afaf421c275d4640,5ff3a402bc4c4da0edd58235,2021-01-05_00h26.03.749,Colour_Similarity_Experiment_v1,2020.1.2,Win32,60,5ff3a352adaa099f7659f8cc,,,,,,,,,,,,,,,,,,,,PF,,,,,,,,3,1.339685,,,,,,,,,,,,,,,,,,,,,,,,,,,,5,-64,-142,1,0,0,response5disk,7,229,1,3,1,0,0,rectangle,1,3,1,0,0,7,0,0,0.000995,1,3,1,0,0,0,66,66,146,1,,,,,,,,,,,,,,,,,,,,,
,,,,,,,,,,,,,,,,,,,,,,,,,,,,,,,,,,,,,,,,,,,5f596c23afaf421c275d4640,5ff3a402bc4c4da0edd58235,2021-01-05_00h26.03.749,Colour_Similarity_Experiment_v1,2020.1.2,Win32,60,5ff3a352adaa099f7659f8cc,,,,,,,,,,,,,,,,,,,,FF,,,,,,,,7,0.959155,,,,,,,,,,,,,,,,,,,,,,,,,,,,4,53,129,1,0,0,response1disk,8,230,-32,-14,1,0,0,rectangle,-32,-14,1,0,0,7,0,0,0.001165,-32,-14,1,0,0,0,67,67,35,1,,,,,,,,,,,,,,,,,,,,,
,,,,,,,,,,,,,,,,,,,,,,,,,,,,,,,,,,,,,,,,,,,5f596c23afaf421c275d4640,5ff3a402bc4c4da0edd58235,2021-01-05_00h26.03.749,Colour_Similarity_Experiment_v1,2020.1.2,Win32,60,5ff3a352adaa099f7659f8cc,,,,,,,,,,,,,,,,,,,,PF,,,,,,,,0,0.979995,,,,,,,,,,,,,,,,,,,,,,,,,,,,9,-29,111,1,0,0,response7disk,9,231,-4,14,1,0,0,rectangle,-4,14,1,0,0,7,1,0,0.000535,-4,14,1,0,0,0,68,68,106,1,,,,,,,,,,,,,,,,,,,,,
,,,,,,,,,,,,,,,,,,,,,,,,,,,,,,,,,,,,,,,,,,,5f596c23afaf421c275d4640,5ff3a402bc4c4da0edd58235,2021-01-05_00h26.03.749,Colour_Similarity_Experiment_v1,2020.1.2,Win32,60,5ff3a352adaa099f7659f8cc,,,,,,,,,,,,,,,,,,,,FF,,,,,,,,5,1.82846,,,,,,,,,,,,,,,,,,,,,,,,,,,,9,135,-40,1,0,0,response3disk,4,232,19,6,1,0,0,rectangle,19,6,1,0,0,7,0,0,0.00133,19,6,1,0,0,0,69,69,60,1,,,,,,,,,,,,,,,,,,,,,
,,,,,,,,,,,,,,,,,,,,,,,,,,,,,,,,,,,,,,,,,,,5f596c23afaf421c275d4640,5ff3a402bc4c4da0edd58235,2021-01-05_00h26.03.749,Colour_Similarity_Experiment_v1,2020.1.2,Win32,60,5ff3a352adaa099f7659f8cc,,,,,,,,,,,,,,,,,,,,PF,,,,,,,,0,1.282175,,,,,,,,,,,,,,,,,,,,,,,,,,,,8,-35,94,1,0,0,response7disk,8,233,13,21,1,0,0,rectangle,13,21,1,0,0,7,6,0,0.00095,13,21,1,0,0,0,70,70,153,1,,,,,,,,,,,,,,,,,,,,,
,,,,,,,,,,,,,,,,,,,,,,,,,,,,,,,,,,,,,,,,,,,5f596c23afaf421c275d4640,5ff3a402bc4c4da0edd58235,2021-01-05_00h26.03.749,Colour_Similarity_Experiment_v1,2020.1.2,Win32,60,5ff3a352adaa099f7659f8cc,,,,,,,,,,,,,,,,,,,,FF,,,,,,,,0,0.75359,,,,,,,,,,,,,,,,,,,,,,,,,,,,7,-63,90,1,0,0,response7disk,7,234,13,3,1,0,0,rectangle,13,3,1,0,0,7,5,0,0.00053,13,3,1,0,0,0,71,71,34,1,,,,,,,,,,,,,,,,,,,,,
,,,,,,,,,,,,,,,,,,,,,,,,,,,,,,,,,,,,,,,,,,,5f596c23afaf421c275d4640,5ff3a402bc4c4da0edd58235,2021-01-05_00h26.03.749,Colour_Similarity_Experiment_v1,2020.1.2,Win32,60,5ff3a352adaa099f7659f8cc,,,,,,,,,,,,,,,,,,,,PF,,,,,,,,7,0.93668,,,,,,,,,,,,,,,,,,,,,,,,,,,,4,36,116,1,0,0,response1disk,1,235,4,4,1,0,0,rectangle,4,4,1,0,0,7,3,0,0.000555,4,4,1,0,0,0,72,72,115,1,,,,,,,,,,,,,,,,,,,,,
,,,,,,,,,,,,,,,,,,,,,,,,,,,,,,,,,,,,,,,,,,,5f596c23afaf421c275d4640,5ff3a402bc4c4da0edd58235,2021-01-05_00h26.03.749,Colour_Similarity_Experiment_v1,2020.1.2,Win32,60,5ff3a352adaa099f7659f8cc,,,,,,,,,,,,,,,,,,,,FF,,,,,,,,2,1.270365,,,,,,,,,,,,,,,,,,,,,,,,,,,,6,-97,-46,1,0,0,response5disk,5,236,7,1,1,0,0,rectangle,7,1,1,0,0,7,1,0,0.00062,7,1,1,0,0,0,73,73,126,1,,,,,,,,,,,,,,,,,,,,,
,,,,,,,,,,,,,,,,,,,,,,,,,,,,,,,,,,,,,,,,,,,5f596c23afaf421c275d4640,5ff3a402bc4c4da0edd58235,2021-01-05_00h26.03.749,Colour_Similarity_Experiment_v1,2020.1.2,Win32,60,5ff3a352adaa099f7659f8cc,,,,,,,,,,,,,,,,,,,,FF,,,,,,,,5,1.87629,,,,,,,,,,,,,,,,,,,,,,,,,,,,1,117,-48,1,0,0,response3disk,5,237,0,8,1,0,0,rectangle,0,8,1,0,0,7,3,0,0.000545,0,8,1,0,0,0,74,74,82,1,,,,,,,,,,,,,,,,,,,,,
,,,,,,,,,,,,,,,,,,,,,,,,,,,,,,,,,,,,,,,,,,,5f596c23afaf421c275d4640,5ff3a402bc4c4da0edd58235,2021-01-05_00h26.03.749,Colour_Similarity_Experiment_v1,2020.1.2,Win32,60,5ff3a352adaa099f7659f8cc,,,,,,,,,,,,,,,,,,,,FF,,,,,,,,1,1.220025,,,,,,,,,,,,,,,,,,,,,,,,,,,,6,-105,57,1,0,0,response7disk,6,238,-11,-10,1,0,0,rectangle,-11,-10,1,0,0,7,4,0,0.00066,-11,-10,1,0,0,0,75,75,91,1,,,,,,,,,,,,,,,,,,,,,
