key_resp.keys,key_resp.rt,key_resp_16.keys,key_resp_16.rt,key_resp_2.keys,key_resp_2.rt,X Scale,ratio_pxpermm,screen_size_x,screen_size_y,testsize,key_resp_3.keys,key_resp_3.rt,key_resp_4.keys,key_resp_4.rt,line_size,key_resp_5.keys,key_resp_5.rt,key_resp_6.keys,key_resp_6.rt,key_resp_8.keys,key_resp_8.rt,key_resp_7.keys,key_resp_7.rt,key_resp_12.keys,key_resp_12.rt,key_resp_11.keys,key_resp_11.rt,key_resp_18.keys,key_resp_18.rt,key_resp_21.keys,key_resp_21.rt,key_resp_13.keys,key_resp_13.rt,key_resp_19.keys,key_resp_19.rt,ballposx,viewer_distance,trials.thisRepN,trials.thisTrialN,trials.thisN,trials.thisIndex,trials.ran,participant,session,date,expName,psychopyVersion,OS,frameRate,study_id,viewerdistancecm,DVA_to_distance,radius_F,radius_P,r_F,R_P,key_resp_20.keys,key_resp_20.rt,key_resp_14.keys,key_resp_14.rt,key_resp_15.keys,key_resp_15.rt,key_resp_17.keys,key_resp_17.rt,key_resp_9.keys,key_resp_9.rt,key_resp_10.keys,key_resp_10.rt,Colour_1,Ecc,mouse_5.x,mouse_5.y,mouse_5.leftButton,mouse_5.midButton,mouse_5.rightButton,mouse_5.clicked_name,Colour_2,similarity,response_time,mouse_10.x,mouse_10.y,mouse_10.leftButton,mouse_10.midButton,mouse_10.rightButton,mouse_10.clicked_name,mouse_7.x,mouse_7.y,mouse_7.leftButton,mouse_7.midButton,mouse_7.rightButton,mouse_7.clicked_name,catchprac,catchnumberprac,mouse_6.x,mouse_6.y,mouse_6.leftButton,mouse_6.midButton,mouse_6.rightButton,mouse_6.clicked_name,duringprac.thisRepN,duringprac.thisTrialN,duringprac.thisN,duringprac.thisIndex,duringprac.ran,key_resp_22.keys,key_resp_22.rt,Colour1,mouse.x,mouse.y,mouse.leftButton,mouse.midButton,mouse.rightButton,mouse.clicked_name,Colour2,trialnumber,mouse_2.x,mouse_2.y,mouse_2.leftButton,mouse_2.midButton,mouse_2.rightButton,mouse_2.clicked_name,mouse_3.x,mouse_3.y,mouse_3.leftButton,mouse_3.midButton,mouse_3.rightButton,catchresponse,catchnumber,Catch,response_time_catch,mouse_11.x,mouse_11.y,mouse_11.leftButton,mouse_11.midButton,mouse_11.rightButton,trials_2.thisRepN,trials_2.thisTrialN,trials_2.thisN,trials_2.thisIndex,trials_2.ran,mouse_3.clicked_name,mouse_11.clicked_name,trials_3.thisRepN,trials_3.thisTrialN,trials_3.thisN,trials_3.thisIndex,trials_3.ran,answer1,rt1,answer2,rt2,answer3,rt3,answer4,rt4,answer5,rt5,answer6,rt6,answer7,rt7
space,1.9898,space,40.750615,space,4.3749,44.8,4.48,342.8571429,192.8571429,1536,space,81.03583,space,14.610795,89.6,space,10.552495,space,4.310485,space,1.52681,space,9.83274,space,4.795115,space,14.13274,space,5.232035,space,10.281145,space,16.14071,return,6.2418,-182.016,740.4715654,0,0,0,0,1,5f7728d67080aa1f45a8b4fd,5ff3a3c79bca6f98934e0ba9,2021-01-05_00h26.33.983,Colour_Similarity_Experiment_v1,2020.1.2,Win32,60,5ff3a352adaa099f7659f8cc,,,,,,,,,,,,,,,,,,,,,,,,,,,,,,,,,,,,,,,,,,,,,,,,,,,,,,,,,,,,,,,,,,,,,,,,,,,,,,,,,,,,,,,,,,,,,,,,,,,,,,,,,,,,,,,
,,,,,,,,,,,,,,,,,,,,,,,,,,,,,,,,,,return,5.09753,-126.72,689.0598463,1,0,1,0,1,5f7728d67080aa1f45a8b4fd,5ff3a3c79bca6f98934e0ba9,2021-01-05_00h26.33.983,Colour_Similarity_Experiment_v1,2020.1.2,Win32,60,5ff3a352adaa099f7659f8cc,,,,,,,,,,,,,,,,,,,,,,,,,,,,,,,,,,,,,,,,,,,,,,,,,,,,,,,,,,,,,,,,,,,,,,,,,,,,,,,,,,,,,,,,,,,,,,,,,,,,,,,,,,,,,,,
,,,,,,,,,,,,,,,,,,,,,,,,,,,,,,,,,,return,4.893105,-99.072,663.3539867,2,0,2,0,1,5f7728d67080aa1f45a8b4fd,5ff3a3c79bca6f98934e0ba9,2021-01-05_00h26.33.983,Colour_Similarity_Experiment_v1,2020.1.2,Win32,60,5ff3a352adaa099f7659f8cc,,,,,,,,,,,,,,,,,,,,,,,,,,,,,,,,,,,,,,,,,,,,,,,,,,,,,,,,,,,,,,,,,,,,,,,,,,,,,,,,,,,,,,,,,,,,,,,,,,,,,,,,,,,,,,,
,,,,,,,,,,,,,,,,,,,,,,,,,,,,,,,,,,return,4.76222,-82.944,648.358902,3,0,3,0,1,5f7728d67080aa1f45a8b4fd,5ff3a3c79bca6f98934e0ba9,2021-01-05_00h26.33.983,Colour_Similarity_Experiment_v1,2020.1.2,Win32,60,5ff3a352adaa099f7659f8cc,,,,,,,,,,,,,,,,,,,,,,,,,,,,,,,,,,,,,,,,,,,,,,,,,,,,,,,,,,,,,,,,,,,,,,,,,,,,,,,,,,,,,,,,,,,,,,,,,,,,,,,,,,,,,,,
,,,,,,,,,,,,,,,,,,,,,,,,,,,,,,,,,,return,4.94909,-105.984,669.7804516,4,0,4,0,1,5f7728d67080aa1f45a8b4fd,5ff3a3c79bca6f98934e0ba9,2021-01-05_00h26.33.983,Colour_Similarity_Experiment_v1,2020.1.2,Win32,60,5ff3a352adaa099f7659f8cc,,,,,,,,,,,,,,,,,,,,,,,,,,,,,,,,,,,,,,,,,,,,,,,,,,,,,,,,,,,,,,,,,,,,,,,,,,,,,,,,,,,,,,,,,,,,,,,,,,,,,,,,,,,,,,,
,,,,,,,,,,,,,,,,,,,,,,,,,,,,,,,,,,,,,,,,,,,5f7728d67080aa1f45a8b4fd,5ff3a3c79bca6f98934e0ba9,2021-01-05_00h26.33.983,Colour_Similarity_Experiment_v1,2020.1.2,Win32,60,5ff3a352adaa099f7659f8cc,67,11.69488932,78.58965623,523.9310415,52.39310415,235.7689687,space,3.32561,space,4.59919,space,23.35692,space,3.93525,space,2.558245,space,4.745355,5,FF,37.60006083,95.99999499,1,0,0,response1disk_5,2,7,33.28478,-2.399939764,-3.200006485,1,0,0,rectangle_8,29.60006071,94.39999497,1,0,0,response1disk_7,7,7,6.400011539,-6.4373E-06,1,0,0,rectangle_4,0,0,0,3,1,,,,,,,,,,,,,,,,,,,,,,,,,,,,,,,,,,,,,,,,,,,,,,,,,,,,,,,,,
,,,,,,,,,,,,,,,,,,,,,,,,,,,,,,,,,,,,,,,,,,,5f7728d67080aa1f45a8b4fd,5ff3a3c79bca6f98934e0ba9,2021-01-05_00h26.33.983,Colour_Similarity_Experiment_v1,2020.1.2,Win32,60,5ff3a352adaa099f7659f8cc,,,,,,,,,,,,,,,,,,,7,PF,44.0000121,83.99999481,1,0,0,response1disk_5,2,7,3.731475,-15.99998879,0.799993575,1,0,0,rectangle_8,39.20001203,68.79999459,1,0,0,response1disk_7,7,7,4.000011504,1.599993587,1,0,0,rectangle_4,0,1,1,6,1,,,,,,,,,,,,,,,,,,,,,,,,,,,,,,,,,,,,,,,,,,,,,,,,,,,,,,,,,
,,,,,,,,,,,,,,,,,,,,,,,,,,,,,,,,,,,,,,,,,,,5f7728d67080aa1f45a8b4fd,5ff3a3c79bca6f98934e0ba9,2021-01-05_00h26.33.983,Colour_Similarity_Experiment_v1,2020.1.2,Win32,60,5ff3a352adaa099f7659f8cc,,,,,,,,,,,,,,,,,,,4,FF,-46.39994042,-87.20000774,1,0,0,response5disk_5,9,3,4.55596,-4.799988627,1.599993587,1,0,0,rectangle_8,-4.799988627,1.599993587,1,0,0,,,7,-4.799988627,1.599993587,1,0,0,,0,2,2,5,1,,,,,,,,,,,,,,,,,,,,,,,,,,,,,,,,,,,,,,,,,,,,,,,,,,,,,,,,,
,,,,,,,,,,,,,,,,,,,,,,,,,,,,,,,,,,,,,,,,,,,5f7728d67080aa1f45a8b4fd,5ff3a3c79bca6f98934e0ba9,2021-01-05_00h26.33.983,Colour_Similarity_Experiment_v1,2020.1.2,Win32,60,5ff3a352adaa099f7659f8cc,,,,,,,,,,,,,,,,,,,7,FF,83.20001268,43.19996979,1,0,0,response1disk_5,6,6,2.42949,-9.599988699,-7.200006545,1,0,0,rectangle_8,-9.599988699,-7.200006545,1,0,0,,,7,-9.599988699,-7.200006545,1,0,0,,0,3,3,0,1,,,,,,,,,,,,,,,,,,,,,,,,,,,,,,,,,,,,,,,,,,,,,,,,,,,,,,,,,
,,,,,,,,,,,,,,,,,,,,,,,,,,,,,,,,,,,,,,,,,,,5f7728d67080aa1f45a8b4fd,5ff3a3c79bca6f98934e0ba9,2021-01-05_00h26.33.983,Colour_Similarity_Experiment_v1,2020.1.2,Win32,60,5ff3a352adaa099f7659f8cc,,,,,,,,,,,,,,,,,,,6,PF,-55.19998938,87.19997045,1,0,0,response7disk_5,1,0,3.03058,-18.39994,1.599993587,1,0,0,rectangle_8,-18.39994,1.599993587,1,0,0,,,7,-18.39994,1.599993587,1,0,0,,0,4,4,4,1,,,,,,,,,,,,,,,,,,,,,,,,,,,,,,,,,,,,,,,,,,,,,,,,,,,,,,,,,
,,,,,,,,,,,,,,,,,,,,,,,,,,,,,,,,,,,,,,,,,,,5f7728d67080aa1f45a8b4fd,5ff3a3c79bca6f98934e0ba9,2021-01-05_00h26.33.983,Colour_Similarity_Experiment_v1,2020.1.2,Win32,60,5ff3a352adaa099f7659f8cc,,,,,,,,,,,,,,,,,,,8,PF,57.6000123,83.19997039,1,0,0,response1disk_5,3,7,4.586095,-9.599988699,2.399993598,1,0,0,rectangle_8,-9.599988699,2.399993598,1,0,0,,,7,-9.599988699,2.399993598,1,0,0,,0,5,5,2,1,,,,,,,,,,,,,,,,,,,,,,,,,,,,,,,,,,,,,,,,,,,,,,,,,,,,,,,,,
,,,,,,,,,,,,,,,,,,,,,,,,,,,,,,,,,,,,,,,,,,,5f7728d67080aa1f45a8b4fd,5ff3a3c79bca6f98934e0ba9,2021-01-05_00h26.33.983,Colour_Similarity_Experiment_v1,2020.1.2,Win32,60,5ff3a352adaa099f7659f8cc,,,,,,,,,,,,,,,,,,,7,PF,85.60001272,53.59999436,1,0,0,response1disk_5,4,6,2.403385,-0.799988568,-2.400006473,1,0,0,rectangle_8,-0.799988568,-2.400006473,1,0,0,,,7,-0.799988568,-2.400006473,1,0,0,,0,6,6,1,1,,,,,,,,,,,,,,,,,,,,,,,,,,,,,,,,,,,,,,,,,,,,,,,,,,,,,,,,,
,,,,,,,,,,,,,,,,,,,,,,,,,,,,,,,,,,,,,,,,,,,5f7728d67080aa1f45a8b4fd,5ff3a3c79bca6f98934e0ba9,2021-01-05_00h26.33.983,Colour_Similarity_Experiment_v1,2020.1.2,Win32,60,5ff3a352adaa099f7659f8cc,,,,,,,,,,,,,,,,,,,,FF,,,,,,,,0,3.390865,,,,,,,,,,,,,,,,,,,,,,,,,,space,1.792535,5,-63.99998951,101.5999951,1,0,0,response7disk,5,1,-7.199988663,5.599993646,1,0,0,rectangle,-7.199988663,5.599993646,1,0,0,,4,0,0.002005,-7.199988663,5.599993646,1,0,0,0,0,0,19,1,,,,,,,,,,,,,,,,,,,,,
,,,,,,,,,,,,,,,,,,,,,,,,,,,,,,,,,,,,,,,,,,,5f7728d67080aa1f45a8b4fd,5ff3a3c79bca6f98934e0ba9,2021-01-05_00h26.33.983,Colour_Similarity_Experiment_v1,2020.1.2,Win32,60,5ff3a352adaa099f7659f8cc,,,,,,,,,,,,,,,,,,,,FF,,,,,,,,6,5.1066,,,,,,,,,,,,,,,,,,,,,,,,,,,,1,103.200013,51.19996991,1,0,0,response1disk,8,2,4.800011516,3.999993622,1,0,0,rectangle,4.800011516,3.999993622,1,0,0,,2,0,0.001665,4.800011516,3.999993622,1,0,0,0,1,1,27,1,,,,,,,,,,,,,,,,,,,,,
,,,,,,,,,,,,,,,,,,,,,,,,,,,,,,,,,,,,,,,,,,,5f7728d67080aa1f45a8b4fd,5ff3a3c79bca6f98934e0ba9,2021-01-05_00h26.33.983,Colour_Similarity_Experiment_v1,2020.1.2,Win32,60,5ff3a352adaa099f7659f8cc,,,,,,,,,,,,,,,,,,,,FF,,,,,,,,6,2.868715,,,,,,,,,,,,,,,,,,,,,,,,,,,,6,69.60001248,39.99999416,1,0,0,response1disk,9,3,22.40001178,9.599993706,1,0,0,rectangle,-49.5999893,80.79999477,1,0,0,0,0,1,3.08913,-5.599988639,9.599993706,1,0,0,0,2,2,160,1,response7disk_3,rectangle,,,,,,,,,,,,,,,,,,,
,,,,,,,,,,,,,,,,,,,,,,,,,,,,,,,,,,,,,,,,,,,5f7728d67080aa1f45a8b4fd,5ff3a3c79bca6f98934e0ba9,2021-01-05_00h26.33.983,Colour_Similarity_Experiment_v1,2020.1.2,Win32,60,5ff3a352adaa099f7659f8cc,,,,,,,,,,,,,,,,,,,,PF,,,,,,,,2,2.54892,,,,,,,,,,,,,,,,,,,,,,,,,,,,8,-67.99998957,-36.00000697,1,0,0,response5disk,9,4,23.20001179,0.799993575,1,0,0,rectangle,23.20001179,0.799993575,1,0,0,0,7,0,0.00108,23.20001179,0.799993575,1,0,0,0,3,3,42,1,,,,,,,,,,,,,,,,,,,,,
,,,,,,,,,,,,,,,,,,,,,,,,,,,,,,,,,,,,,,,,,,,5f7728d67080aa1f45a8b4fd,5ff3a3c79bca6f98934e0ba9,2021-01-05_00h26.33.983,Colour_Similarity_Experiment_v1,2020.1.2,Win32,60,5ff3a352adaa099f7659f8cc,,,,,,,,,,,,,,,,,,,,PF,,,,,,,,6,2.930135,,,,,,,,,,,,,,,,,,,,,,,,,,,,9,112.0000131,54.39999437,1,0,0,response1disk,5,5,19.20001173,3.19999361,1,0,0,rectangle,19.20001173,3.19999361,1,0,0,0,0,0,0.00093,19.20001173,3.19999361,1,0,0,0,4,4,134,1,,,,,,,,,,,,,,,,,,,,,
,,,,,,,,,,,,,,,,,,,,,,,,,,,,,,,,,,,,,,,,,,,5f7728d67080aa1f45a8b4fd,5ff3a3c79bca6f98934e0ba9,2021-01-05_00h26.33.983,Colour_Similarity_Experiment_v1,2020.1.2,Win32,60,5ff3a352adaa099f7659f8cc,,,,,,,,,,,,,,,,,,,,PF,,,,,,,,7,1.7338,,,,,,,,,,,,,,,,,,,,,,,,,,,,5,46.40001214,68.79999459,1,0,0,response1disk,1,6,4.800011516,-0.800006449,1,0,0,rectangle,111.2000131,-35.20000696,1,0,0,5,5,1,2.64144,-3.199988604,12.79999375,1,0,0,0,5,5,159,1,response3disk_3,rectangle,,,,,,,,,,,,,,,,,,,
,,,,,,,,,,,,,,,,,,,,,,,,,,,,,,,,,,,,,,,,,,,5f7728d67080aa1f45a8b4fd,5ff3a3c79bca6f98934e0ba9,2021-01-05_00h26.33.983,Colour_Similarity_Experiment_v1,2020.1.2,Win32,60,5ff3a352adaa099f7659f8cc,,,,,,,,,,,,,,,,,,,,PF,,,,,,,,5,4.54479,,,,,,,,,,,,,,,,,,,,,,,,,,,,9,88.80001277,-34.40000695,1,0,0,response3disk,3,7,-13.59998876,10.39999372,1,0,0,rectangle,-13.59998876,10.39999372,1,0,0,5,7,0,0.00245,-13.59998876,10.39999372,1,0,0,0,6,6,119,1,,,,,,,,,,,,,,,,,,,,,
,,,,,,,,,,,,,,,,,,,,,,,,,,,,,,,,,,,,,,,,,,,5f7728d67080aa1f45a8b4fd,5ff3a3c79bca6f98934e0ba9,2021-01-05_00h26.33.983,Colour_Similarity_Experiment_v1,2020.1.2,Win32,60,5ff3a352adaa099f7659f8cc,,,,,,,,,,,,,,,,,,,,FF,,,,,,,,6,1.79582,,,,,,,,,,,,,,,,,,,,,,,,,,,,1,66.40001243,44.79999423,1,0,0,response1disk,3,8,29.60006071,6.399993658,1,0,0,rectangle,29.60006071,6.399993658,1,0,0,5,0,0,0.0012,29.60006071,6.399993658,1,0,0,0,7,7,99,1,,,,,,,,,,,,,,,,,,,,,
,,,,,,,,,,,,,,,,,,,,,,,,,,,,,,,,,,,,,,,,,,,5f7728d67080aa1f45a8b4fd,5ff3a3c79bca6f98934e0ba9,2021-01-05_00h26.33.983,Colour_Similarity_Experiment_v1,2020.1.2,Win32,60,5ff3a352adaa099f7659f8cc,,,,,,,,,,,,,,,,,,,,PF,,,,,,,,6,1.809545,,,,,,,,,,,,,,,,,,,,,,,,,,,,4,91.2000128,56.79999441,1,0,0,response1disk,1,9,8.000011563,-0.800006449,1,0,0,rectangle,8.000011563,-0.800006449,1,0,0,5,4,0,0.001445,8.000011563,-0.800006449,1,0,0,0,8,8,115,1,,,,,,,,,,,,,,,,,,,,,
,,,,,,,,,,,,,,,,,,,,,,,,,,,,,,,,,,,,,,,,,,,5f7728d67080aa1f45a8b4fd,5ff3a3c79bca6f98934e0ba9,2021-01-05_00h26.33.983,Colour_Similarity_Experiment_v1,2020.1.2,Win32,60,5ff3a352adaa099f7659f8cc,,,,,,,,,,,,,,,,,,,,PF,,,,,,,,4,2.61801,,,,,,,,,,,,,,,,,,,,,,,,,,,,8,52.00001222,-65.60000741,1,0,0,response3disk,1,10,3.200011492,-6.400006533,1,0,0,rectangle,3.200011492,-6.400006533,1,0,0,5,0,0,0.001245,3.200011492,-6.400006533,1,0,0,0,9,9,57,1,,,,,,,,,,,,,,,,,,,,,
,,,,,,,,,,,,,,,,,,,,,,,,,,,,,,,,,,,,,,,,,,,5f7728d67080aa1f45a8b4fd,5ff3a3c79bca6f98934e0ba9,2021-01-05_00h26.33.983,Colour_Similarity_Experiment_v1,2020.1.2,Win32,60,5ff3a352adaa099f7659f8cc,,,,,,,,,,,,,,,,,,,,PF,,,,,,,,6,2.5512,,,,,,,,,,,,,,,,,,,,,,,,,,,,1,110.4000131,43.19996979,1,0,0,response1disk,6,11,10.4000116,3.19999361,1,0,0,rectangle,10.4000116,3.19999361,1,0,0,5,5,0,0.00161,10.4000116,3.19999361,1,0,0,0,10,10,144,1,,,,,,,,,,,,,,,,,,,,,
,,,,,,,,,,,,,,,,,,,,,,,,,,,,,,,,,,,,,,,,,,,5f7728d67080aa1f45a8b4fd,5ff3a3c79bca6f98934e0ba9,2021-01-05_00h26.33.983,Colour_Similarity_Experiment_v1,2020.1.2,Win32,60,5ff3a352adaa099f7659f8cc,,,,,,,,,,,,,,,,,,,,PF,,,,,,,,2,2.20663,,,,,,,,,,,,,,,,,,,,,,,,,,,,9,-87.19998986,-35.20000696,1,0,0,response5disk,1,12,-2.399939764,-5.600006521,1,0,0,rectangle,-2.399939764,-5.600006521,1,0,0,5,3,0,0.00271,-2.399939764,-5.600006521,1,0,0,0,11,11,74,1,,,,,,,,,,,,,,,,,,,,,
,,,,,,,,,,,,,,,,,,,,,,,,,,,,,,,,,,,,,,,,,,,5f7728d67080aa1f45a8b4fd,5ff3a3c79bca6f98934e0ba9,2021-01-05_00h26.33.983,Colour_Similarity_Experiment_v1,2020.1.2,Win32,60,5ff3a352adaa099f7659f8cc,,,,,,,,,,,,,,,,,,,,PF,,,,,,,,0,1.574725,,,,,,,,,,,,,,,,,,,,,,,,,,,,2,-38.3999403,69.5999946,1,0,0,response7disk,2,13,1.14441E-05,-1.600006461,1,0,0,rectangle,1.14441E-05,-1.600006461,1,0,0,5,6,0,0.001045,1.14441E-05,-1.600006461,1,0,0,0,12,12,14,1,,,,,,,,,,,,,,,,,,,,,
,,,,,,,,,,,,,,,,,,,,,,,,,,,,,,,,,,,,,,,,,,,5f7728d67080aa1f45a8b4fd,5ff3a3c79bca6f98934e0ba9,2021-01-05_00h26.33.983,Colour_Similarity_Experiment_v1,2020.1.2,Win32,60,5ff3a352adaa099f7659f8cc,,,,,,,,,,,,,,,,,,,,PF,,,,,,,,3,3.213895,,,,,,,,,,,,,,,,,,,,,,,,,,,,5,-61.59998947,-86.40000772,1,0,0,response5disk,6,14,1.14441E-05,-3.200006485,1,0,0,rectangle,1.14441E-05,-3.200006485,1,0,0,5,1,0,0.00189,1.14441E-05,-3.200006485,1,0,0,0,13,13,103,1,,,,,,,,,,,,,,,,,,,,,
,,,,,,,,,,,,,,,,,,,,,,,,,,,,,,,,,,,,,,,,,,,5f7728d67080aa1f45a8b4fd,5ff3a3c79bca6f98934e0ba9,2021-01-05_00h26.33.983,Colour_Similarity_Experiment_v1,2020.1.2,Win32,60,5ff3a352adaa099f7659f8cc,,,,,,,,,,,,,,,,,,,,FF,,,,,,,,5,5.179465,,,,,,,,,,,,,,,,,,,,,,,,,,,,2,80.80001265,-36.80000699,1,0,0,response3disk,5,15,12.00001162,11.19999373,1,0,0,rectangle,12.00001162,11.19999373,1,0,0,5,2,0,0.000925,12.00001162,11.19999373,1,0,0,0,14,14,80,1,,,,,,,,,,,,,,,,,,,,,
,,,,,,,,,,,,,,,,,,,,,,,,,,,,,,,,,,,,,,,,,,,5f7728d67080aa1f45a8b4fd,5ff3a3c79bca6f98934e0ba9,2021-01-05_00h26.33.983,Colour_Similarity_Experiment_v1,2020.1.2,Win32,60,5ff3a352adaa099f7659f8cc,,,,,,,,,,,,,,,,,,,,FF,,,,,,,,6,1.655795,,,,,,,,,,,,,,,,,,,,,,,,,,,,5,103.200013,38.39999413,1,0,0,response1disk,1,16,32.00001192,-0.800006449,1,0,0,rectangle,32.00001192,-0.800006449,1,0,0,5,6,0,0.00129,32.00001192,-0.800006449,1,0,0,0,15,15,131,1,,,,,,,,,,,,,,,,,,,,,
,,,,,,,,,,,,,,,,,,,,,,,,,,,,,,,,,,,,,,,,,,,5f7728d67080aa1f45a8b4fd,5ff3a3c79bca6f98934e0ba9,2021-01-05_00h26.33.983,Colour_Similarity_Experiment_v1,2020.1.2,Win32,60,5ff3a352adaa099f7659f8cc,,,,,,,,,,,,,,,,,,,,FF,,,,,,,,2,1.470075,,,,,,,,,,,,,,,,,,,,,,,,,,,,9,-53.59998935,-52.80000722,1,0,0,response5disk,8,17,-18.39994,-3.200006485,1,0,0,rectangle,-18.39994,-3.200006485,1,0,0,5,7,0,0.001115,-18.39994,-3.200006485,1,0,0,0,16,16,6,1,,,,,,,,,,,,,,,,,,,,,
,,,,,,,,,,,,,,,,,,,,,,,,,,,,,,,,,,,,,,,,,,,5f7728d67080aa1f45a8b4fd,5ff3a3c79bca6f98934e0ba9,2021-01-05_00h26.33.983,Colour_Similarity_Experiment_v1,2020.1.2,Win32,60,5ff3a352adaa099f7659f8cc,,,,,,,,,,,,,,,,,,,,FF,,,,,,,,2,1.917645,,,,,,,,,,,,,,,,,,,,,,,,,,,,8,-51.19998932,-27.20000684,1,0,0,response5disk,1,18,-0.799988568,-9.60000658,1,0,0,rectangle,-0.799988568,-9.60000658,1,0,0,5,7,0,0.00145,-0.799988568,-9.60000658,1,0,0,0,17,17,20,1,,,,,,,,,,,,,,,,,,,,,
,,,,,,,,,,,,,,,,,,,,,,,,,,,,,,,,,,,,,,,,,,,5f7728d67080aa1f45a8b4fd,5ff3a3c79bca6f98934e0ba9,2021-01-05_00h26.33.983,Colour_Similarity_Experiment_v1,2020.1.2,Win32,60,5ff3a352adaa099f7659f8cc,,,,,,,,,,,,,,,,,,,,PF,,,,,,,,5,1.27522,,,,,,,,,,,,,,,,,,,,,,,,,,,,1,103.200013,-56.00000727,1,0,0,response3disk,5,19,32.00001192,6.399993658,1,0,0,rectangle,32.00001192,6.399993658,1,0,0,5,3,0,0.001475,32.00001192,6.399993658,1,0,0,0,18,18,28,1,,,,,,,,,,,,,,,,,,,,,
,,,,,,,,,,,,,,,,,,,,,,,,,,,,,,,,,,,,,,,,,,,5f7728d67080aa1f45a8b4fd,5ff3a3c79bca6f98934e0ba9,2021-01-05_00h26.33.983,Colour_Similarity_Experiment_v1,2020.1.2,Win32,60,5ff3a352adaa099f7659f8cc,,,,,,,,,,,,,,,,,,,,PF,,,,,,,,1,1.97525,,,,,,,,,,,,,,,,,,,,,,,,,,,,4,-55.99998939,43.19996979,1,0,0,response7disk,5,20,-14.39993994,-2.400006473,1,0,0,rectangle,-14.39993994,-2.400006473,1,0,0,5,5,0,0.006935,-14.39993994,-2.400006473,1,0,0,0,19,19,49,1,,,,,,,,,,,,,,,,,,,,,
,,,,,,,,,,,,,,,,,,,,,,,,,,,,,,,,,,,,,,,,,,,5f7728d67080aa1f45a8b4fd,5ff3a3c79bca6f98934e0ba9,2021-01-05_00h26.33.983,Colour_Similarity_Experiment_v1,2020.1.2,Win32,60,5ff3a352adaa099f7659f8cc,,,,,,,,,,,,,,,,,,,,FF,,,,,,,,5,1.89116,,,,,,,,,,,,,,,,,,,,,,,,,,,,3,59.20001233,-31.2000069,1,0,0,response3disk,8,21,21.60006059,3.999993622,1,0,0,rectangle,21.60006059,3.999993622,1,0,0,5,4,0,0.001535,21.60006059,3.999993622,1,0,0,0,20,20,44,1,,,,,,,,,,,,,,,,,,,,,
,,,,,,,,,,,,,,,,,,,,,,,,,,,,,,,,,,,,,,,,,,,5f7728d67080aa1f45a8b4fd,5ff3a3c79bca6f98934e0ba9,2021-01-05_00h26.33.983,Colour_Similarity_Experiment_v1,2020.1.2,Win32,60,5ff3a352adaa099f7659f8cc,,,,,,,,,,,,,,,,,,,,PF,,,,,,,,0,1.60808,,,,,,,,,,,,,,,,,,,,,,,,,,,,1,-27.19998896,80.79999477,1,0,0,response7disk,1,22,-5.599988639,-2.400006473,1,0,0,rectangle,-71.99998963,-101.6000568,1,0,0,3,3,1,3.57405,-19.19998884,0.799993575,1,0,0,0,21,21,76,1,response5disk_3,rectangle,,,,,,,,,,,,,,,,,,,
,,,,,,,,,,,,,,,,,,,,,,,,,,,,,,,,,,,,,,,,,,,5f7728d67080aa1f45a8b4fd,5ff3a3c79bca6f98934e0ba9,2021-01-05_00h26.33.983,Colour_Similarity_Experiment_v1,2020.1.2,Win32,60,5ff3a352adaa099f7659f8cc,,,,,,,,,,,,,,,,,,,,FF,,,,,,,,1,1.75369,,,,,,,,,,,,,,,,,,,,,,,,,,,,3,-55.99998939,36.79999411,1,0,0,response7disk,5,23,-6.399939823,-2.400006473,1,0,0,rectangle,-6.399939823,-2.400006473,1,0,0,3,1,0,0.001365,-6.399939823,-2.400006473,1,0,0,0,22,22,101,1,,,,,,,,,,,,,,,,,,,,,
,,,,,,,,,,,,,,,,,,,,,,,,,,,,,,,,,,,,,,,,,,,5f7728d67080aa1f45a8b4fd,5ff3a3c79bca6f98934e0ba9,2021-01-05_00h26.33.983,Colour_Similarity_Experiment_v1,2020.1.2,Win32,60,5ff3a352adaa099f7659f8cc,,,,,,,,,,,,,,,,,,,,PF,,,,,,,,3,2.94356,,,,,,,,,,,,,,,,,,,,,,,,,,,,4,-54.39994054,-75.20000756,1,0,0,response5disk,9,24,-4.799988627,4.799993634,1,0,0,rectangle,-4.799988627,4.799993634,1,0,0,3,5,0,0.004145,-4.799988627,4.799993634,1,0,0,0,23,23,75,1,,,,,,,,,,,,,,,,,,,,,
,,,,,,,,,,,,,,,,,,,,,,,,,,,,,,,,,,,,,,,,,,,5f7728d67080aa1f45a8b4fd,5ff3a3c79bca6f98934e0ba9,2021-01-05_00h26.33.983,Colour_Similarity_Experiment_v1,2020.1.2,Win32,60,5ff3a352adaa099f7659f8cc,,,,,,,,,,,,,,,,,,,,PF,,,,,,,,3,2.10055,,,,,,,,,,,,,,,,,,,,,,,,,,,,8,-49.5999893,-109.6000569,1,0,0,response5disk,7,25,-8.799988687,4.799993634,1,0,0,rectangle,-8.799988687,4.799993634,1,0,0,3,4,0,0.00179,-8.799988687,4.799993634,1,0,0,0,24,24,23,1,,,,,,,,,,,,,,,,,,,,,
,,,,,,,,,,,,,,,,,,,,,,,,,,,,,,,,,,,,,,,,,,,5f7728d67080aa1f45a8b4fd,5ff3a3c79bca6f98934e0ba9,2021-01-05_00h26.33.983,Colour_Similarity_Experiment_v1,2020.1.2,Win32,60,5ff3a352adaa099f7659f8cc,,,,,,,,,,,,,,,,,,,,FF,,,,,,,,0,1.369305,,,,,,,,,,,,,,,,,,,,,,,,,,,,4,-27.19998896,85.59999484,1,0,0,response7disk,4,26,5.600060356,-9.60000658,1,0,0,rectangle,5.600060356,-9.60000658,1,0,0,3,5,0,0.002225,5.600060356,-9.60000658,1,0,0,0,25,25,84,1,,,,,,,,,,,,,,,,,,,,,
,,,,,,,,,,,,,,,,,,,,,,,,,,,,,,,,,,,,,,,,,,,5f7728d67080aa1f45a8b4fd,5ff3a3c79bca6f98934e0ba9,2021-01-05_00h26.33.983,Colour_Similarity_Experiment_v1,2020.1.2,Win32,60,5ff3a352adaa099f7659f8cc,,,,,,,,,,,,,,,,,,,,PF,,,,,,,,4,1.82495,,,,,,,,,,,,,,,,,,,,,,,,,,,,3,51.20001221,-103.200008,1,0,0,response3disk,9,27,-19.99998885,-8.800006568,1,0,0,rectangle,-19.99998885,-8.800006568,1,0,0,3,2,0,0.001835,-19.99998885,-8.800006568,1,0,0,0,26,26,79,1,,,,,,,,,,,,,,,,,,,,,
,,,,,,,,,,,,,,,,,,,,,,,,,,,,,,,,,,,,,,,,,,,5f7728d67080aa1f45a8b4fd,5ff3a3c79bca6f98934e0ba9,2021-01-05_00h26.33.983,Colour_Similarity_Experiment_v1,2020.1.2,Win32,60,5ff3a352adaa099f7659f8cc,,,,,,,,,,,,,,,,,,,,PF,,,,,,,,7,2.47938,,,,,,,,,,,,,,,,,,,,,,,,,,,,7,51.20001221,95.19997057,1,0,0,response1disk,2,28,7.200011551,5.599993646,1,0,0,rectangle,7.200011551,5.599993646,1,0,0,3,2,0,0.00105,7.200011551,5.599993646,1,0,0,0,27,27,32,1,,,,,,,,,,,,,,,,,,,,,
,,,,,,,,,,,,,,,,,,,,,,,,,,,,,,,,,,,,,,,,,,,5f7728d67080aa1f45a8b4fd,5ff3a3c79bca6f98934e0ba9,2021-01-05_00h26.33.983,Colour_Similarity_Experiment_v1,2020.1.2,Win32,60,5ff3a352adaa099f7659f8cc,,,,,,,,,,,,,,,,,,,,FF,,,,,,,,1,2.40649,,,,,,,,,,,,,,,,,,,,,,,,,,,,4,-57.59998941,32.79999405,1,0,0,response7disk,5,29,-19.19998884,-3.200006485,1,0,0,rectangle,-19.19998884,-3.200006485,1,0,0,3,0,0,0.00195,-19.19998884,-3.200006485,1,0,0,0,28,28,116,1,,,,,,,,,,,,,,,,,,,,,
,,,,,,,,,,,,,,,,,,,,,,,,,,,,,,,,,,,,,,,,,,,5f7728d67080aa1f45a8b4fd,5ff3a3c79bca6f98934e0ba9,2021-01-05_00h26.33.983,Colour_Similarity_Experiment_v1,2020.1.2,Win32,60,5ff3a352adaa099f7659f8cc,,,,,,,,,,,,,,,,,,,,PF,,,,,,,,2,2.418355,,,,,,,,,,,,,,,,,,,,,,,,,,,,2,-74.39994084,-36.80000699,1,0,0,response5disk,9,30,-9.599988699,2.399993598,1,0,0,rectangle,-9.599988699,2.399993598,1,0,0,3,7,0,0.00148,-9.599988699,2.399993598,1,0,0,0,29,29,39,1,,,,,,,,,,,,,,,,,,,,,
,,,,,,,,,,,,,,,,,,,,,,,,,,,,,,,,,,,,,,,,,,,5f7728d67080aa1f45a8b4fd,5ff3a3c79bca6f98934e0ba9,2021-01-05_00h26.33.983,Colour_Similarity_Experiment_v1,2020.1.2,Win32,60,5ff3a352adaa099f7659f8cc,,,,,,,,,,,,,,,,,,,,PF,,,,,,,,1,3.553785,,,,,,,,,,,,,,,,,,,,,,,,,,,,4,-61.59998947,37.59999412,1,0,0,response7disk,4,31,7.200011551,-4.800006509,1,0,0,rectangle,7.200011551,-4.800006509,1,0,0,3,7,0,0.00098,7.200011551,-4.800006509,1,0,0,0,30,30,70,1,,,,,,,,,,,,,,,,,,,,,
,,,,,,,,,,,,,,,,,,,,,,,,,,,,,,,,,,,,,,,,,,,5f7728d67080aa1f45a8b4fd,5ff3a3c79bca6f98934e0ba9,2021-01-05_00h26.33.983,Colour_Similarity_Experiment_v1,2020.1.2,Win32,60,5ff3a352adaa099f7659f8cc,,,,,,,,,,,,,,,,,,,,FF,,,,,,,,4,1.96471,,,,,,,,,,,,,,,,,,,,,,,,,,,,8,19.20001173,-103.200008,1,0,0,response3disk,6,32,-1.59998858,-6.4373E-06,1,0,0,rectangle,-1.59998858,-6.4373E-06,1,0,0,3,2,0,0.0011,-1.59998858,-6.4373E-06,1,0,0,0,31,31,37,1,,,,,,,,,,,,,,,,,,,,,
,,,,,,,,,,,,,,,,,,,,,,,,,,,,,,,,,,,,,,,,,,,5f7728d67080aa1f45a8b4fd,5ff3a3c79bca6f98934e0ba9,2021-01-05_00h26.33.983,Colour_Similarity_Experiment_v1,2020.1.2,Win32,60,5ff3a352adaa099f7659f8cc,,,,,,,,,,,,,,,,,,,,PF,,,,,,,,1,1.688895,,,,,,,,,,,,,,,,,,,,,,,,,,,,5,-69.59998959,37.59999412,1,0,0,response7disk,4,33,-12.79998875,-5.600006521,1,0,0,rectangle,-12.79998875,-5.600006521,1,0,0,3,2,0,0.001145,-12.79998875,-5.600006521,1,0,0,0,32,32,54,1,,,,,,,,,,,,,,,,,,,,,
,,,,,,,,,,,,,,,,,,,,,,,,,,,,,,,,,,,,,,,,,,,5f7728d67080aa1f45a8b4fd,5ff3a3c79bca6f98934e0ba9,2021-01-05_00h26.33.983,Colour_Similarity_Experiment_v1,2020.1.2,Win32,60,5ff3a352adaa099f7659f8cc,,,,,,,,,,,,,,,,,,,,FF,,,,,,,,4,2.575165,,,,,,,,,,,,,,,,,,,,,,,,,,,,2,52.80001223,-92.00000781,1,0,0,response3disk,9,34,-7.199988663,-4.000006497,1,0,0,rectangle,-7.199988663,-4.000006497,1,0,0,3,2,0,0.001575,-7.199988663,-4.000006497,1,0,0,0,33,33,72,1,,,,,,,,,,,,,,,,,,,,,
,,,,,,,,,,,,,,,,,,,,,,,,,,,,,,,,,,,,,,,,,,,5f7728d67080aa1f45a8b4fd,5ff3a3c79bca6f98934e0ba9,2021-01-05_00h26.33.983,Colour_Similarity_Experiment_v1,2020.1.2,Win32,60,5ff3a352adaa099f7659f8cc,,,,,,,,,,,,,,,,,,,,FF,,,,,,,,5,2.512865,,,,,,,,,,,,,,,,,,,,,,,,,,,,9,87.20001274,-46.40000713,1,0,0,response3disk,4,35,-13.59998876,-2.400006473,1,0,0,rectangle,-13.59998876,-2.400006473,1,0,0,3,1,0,0.002365,-13.59998876,-2.400006473,1,0,0,0,34,34,60,1,,,,,,,,,,,,,,,,,,,,,
,,,,,,,,,,,,,,,,,,,,,,,,,,,,,,,,,,,,,,,,,,,5f7728d67080aa1f45a8b4fd,5ff3a3c79bca6f98934e0ba9,2021-01-05_00h26.33.983,Colour_Similarity_Experiment_v1,2020.1.2,Win32,60,5ff3a352adaa099f7659f8cc,,,,,,,,,,,,,,,,,,,,PF,,,,,,,,5,1.683915,,,,,,,,,,,,,,,,,,,,,,,,,,,,9,100.8000129,-52.00000721,1,0,0,response3disk,6,36,0.800011456,-5.600006521,1,0,0,rectangle,0.800011456,-5.600006521,1,0,0,3,3,0,0.001245,0.800011456,-5.600006521,1,0,0,0,35,35,148,1,,,,,,,,,,,,,,,,,,,,,
,,,,,,,,,,,,,,,,,,,,,,,,,,,,,,,,,,,,,,,,,,,5f7728d67080aa1f45a8b4fd,5ff3a3c79bca6f98934e0ba9,2021-01-05_00h26.33.983,Colour_Similarity_Experiment_v1,2020.1.2,Win32,60,5ff3a352adaa099f7659f8cc,,,,,,,,,,,,,,,,,,,,FF,,,,,,,,4,2.08288,,,,,,,,,,,,,,,,,,,,,,,,,,,,5,48.80001217,-84.00000769,1,0,0,response3disk,6,37,-12.79998875,-5.600006521,1,0,0,rectangle,-12.79998875,-5.600006521,1,0,0,3,0,0,0.00115,-12.79998875,-5.600006521,1,0,0,0,36,36,12,1,,,,,,,,,,,,,,,,,,,,,
,,,,,,,,,,,,,,,,,,,,,,,,,,,,,,,,,,,,,,,,,,,5f7728d67080aa1f45a8b4fd,5ff3a3c79bca6f98934e0ba9,2021-01-05_00h26.33.983,Colour_Similarity_Experiment_v1,2020.1.2,Win32,60,5ff3a352adaa099f7659f8cc,,,,,,,,,,,,,,,,,,,,PF,,,,,,,,5,2.65253,,,,,,,,,,,,,,,,,,,,,,,,,,,,4,64.80001241,-50.40000719,1,0,0,response3disk,6,38,16.80001169,-3.200006485,1,0,0,rectangle,16.80001169,-3.200006485,1,0,0,3,5,0,0.001315,16.80001169,-3.200006485,1,0,0,0,37,37,120,1,,,,,,,,,,,,,,,,,,,,,
,,,,,,,,,,,,,,,,,,,,,,,,,,,,,,,,,,,,,,,,,,,5f7728d67080aa1f45a8b4fd,5ff3a3c79bca6f98934e0ba9,2021-01-05_00h26.33.983,Colour_Similarity_Experiment_v1,2020.1.2,Win32,60,5ff3a352adaa099f7659f8cc,,,,,,,,,,,,,,,,,,,,FF,,,,,,,,1,1.99607,,,,,,,,,,,,,,,,,,,,,,,,,,,,7,-71.19998962,45.59999424,1,0,0,response7disk,6,39,-12.79998875,-6.400006533,1,0,0,rectangle,-12.79998875,-6.400006533,1,0,0,3,1,0,0.00127,-12.79998875,-6.400006533,1,0,0,0,38,38,31,1,,,,,,,,,,,,,,,,,,,,,
,,,,,,,,,,,,,,,,,,,,,,,,,,,,,,,,,,,,,,,,,,,5f7728d67080aa1f45a8b4fd,5ff3a3c79bca6f98934e0ba9,2021-01-05_00h26.33.983,Colour_Similarity_Experiment_v1,2020.1.2,Win32,60,5ff3a352adaa099f7659f8cc,,,,,,,,,,,,,,,,,,,,PF,,,,,,,,6,2.181045,,,,,,,,,,,,,,,,,,,,,,,,,,,,8,101.600013,36.79999411,1,0,0,response1disk,4,40,24.0000118,11.19999373,1,0,0,rectangle,24.0000118,11.19999373,1,0,0,3,3,0,0.00348,24.0000118,11.19999373,1,0,0,0,39,39,78,1,,,,,,,,,,,,,,,,,,,,,
,,,,,,,,,,,,,,,,,,,,,,,,,,,,,,,,,,,,,,,,,,,5f7728d67080aa1f45a8b4fd,5ff3a3c79bca6f98934e0ba9,2021-01-05_00h26.33.983,Colour_Similarity_Experiment_v1,2020.1.2,Win32,60,5ff3a352adaa099f7659f8cc,,,,,,,,,,,,,,,,,,,,FF,,,,,,,,3,1.96205,,,,,,,,,,,,,,,,,,,,,,,,,,,,3,-45.59998924,-103.200008,1,0,0,response5disk,6,41,-3.999988616,15.19999379,1,0,0,rectangle,-3.999988616,15.19999379,1,0,0,3,7,0,0.00825,-3.999988616,15.19999379,1,0,0,0,40,40,95,1,,,,,,,,,,,,,,,,,,,,,
,,,,,,,,,,,,,,,,,,,,,,,,,,,,,,,,,,,,,,,,,,,5f7728d67080aa1f45a8b4fd,5ff3a3c79bca6f98934e0ba9,2021-01-05_00h26.33.983,Colour_Similarity_Experiment_v1,2020.1.2,Win32,60,5ff3a352adaa099f7659f8cc,,,,,,,,,,,,,,,,,,,,FF,,,,,,,,3,3.8104,,,,,,,,,,,,,,,,,,,,,,,,,,,,8,-41.59998918,-97.60005672,1,0,0,response5disk,9,42,-6.399939823,-4.000006497,1,0,0,rectangle,-6.399939823,-4.000006497,1,0,0,3,0,0,0.00113,-6.399939823,-4.000006497,1,0,0,0,41,41,105,1,,,,,,,,,,,,,,,,,,,,,
,,,,,,,,,,,,,,,,,,,,,,,,,,,,,,,,,,,,,,,,,,,5f7728d67080aa1f45a8b4fd,5ff3a3c79bca6f98934e0ba9,2021-01-05_00h26.33.983,Colour_Similarity_Experiment_v1,2020.1.2,Win32,60,5ff3a352adaa099f7659f8cc,,,,,,,,,,,,,,,,,,,,PF,,,,,,,,4,2.584285,,,,,,,,,,,,,,,,,,,,,,,,,,,,6,26.40001184,-96.80000788,1,0,0,response3disk,9,43,21.60006059,8.799993694,1,0,0,rectangle,21.60006059,8.799993694,1,0,0,3,1,0,0.001385,21.60006059,8.799993694,1,0,0,0,42,42,45,1,,,,,,,,,,,,,,,,,,,,,
,,,,,,,,,,,,,,,,,,,,,,,,,,,,,,,,,,,,,,,,,,,5f7728d67080aa1f45a8b4fd,5ff3a3c79bca6f98934e0ba9,2021-01-05_00h26.33.983,Colour_Similarity_Experiment_v1,2020.1.2,Win32,60,5ff3a352adaa099f7659f8cc,,,,,,,,,,,,,,,,,,,,PF,,,,,,,,5,1.95849,,,,,,,,,,,,,,,,,,,,,,,,,,,,5,105.600013,-55.20000726,1,0,0,response3disk,8,44,-1.59998858,-4.000006497,1,0,0,rectangle,-1.59998858,-4.000006497,1,0,0,3,4,0,0.001695,-1.59998858,-4.000006497,1,0,0,0,43,43,149,1,,,,,,,,,,,,,,,,,,,,,
,,,,,,,,,,,,,,,,,,,,,,,,,,,,,,,,,,,,,,,,,,,5f7728d67080aa1f45a8b4fd,5ff3a3c79bca6f98934e0ba9,2021-01-05_00h26.33.983,Colour_Similarity_Experiment_v1,2020.1.2,Win32,60,5ff3a352adaa099f7659f8cc,,,,,,,,,,,,,,,,,,,,PF,,,,,,,,4,1.555005,,,,,,,,,,,,,,,,,,,,,,,,,,,,2,18.40001172,-64.00000739,1,0,0,response3disk,5,45,14.40001166,-14.40000665,1,0,0,rectangle,14.40001166,-14.40000665,1,0,0,3,0,0,0.00084,14.40001166,-14.40000665,1,0,0,0,44,44,147,1,,,,,,,,,,,,,,,,,,,,,
,,,,,,,,,,,,,,,,,,,,,,,,,,,,,,,,,,,,,,,,,,,5f7728d67080aa1f45a8b4fd,5ff3a3c79bca6f98934e0ba9,2021-01-05_00h26.33.983,Colour_Similarity_Experiment_v1,2020.1.2,Win32,60,5ff3a352adaa099f7659f8cc,,,,,,,,,,,,,,,,,,,,FF,,,,,,,,3,1.564425,,,,,,,,,,,,,,,,,,,,,,,,,,,,6,-48.79998928,-56.80000728,1,0,0,response5disk,4,46,-5.599988639,-7.200006545,1,0,0,rectangle,-5.599988639,-7.200006545,1,0,0,3,5,0,0.000725,-5.599988639,-7.200006545,1,0,0,0,45,45,56,1,,,,,,,,,,,,,,,,,,,,,
,,,,,,,,,,,,,,,,,,,,,,,,,,,,,,,,,,,,,,,,,,,5f7728d67080aa1f45a8b4fd,5ff3a3c79bca6f98934e0ba9,2021-01-05_00h26.33.983,Colour_Similarity_Experiment_v1,2020.1.2,Win32,60,5ff3a352adaa099f7659f8cc,,,,,,,,,,,,,,,,,,,,FF,,,,,,,,4,2.17119,,,,,,,,,,,,,,,,,,,,,,,,,,,,2,36.00001198,-76.80000758,1,0,0,response3disk,4,47,8.800011575,-7.200006545,1,0,0,rectangle,8.800011575,-7.200006545,1,0,0,3,3,0,0.001225,8.800011575,-7.200006545,1,0,0,0,46,46,145,1,,,,,,,,,,,,,,,,,,,,,
,,,,,,,,,,,,,,,,,,,,,,,,,,,,,,,,,,,,,,,,,,,5f7728d67080aa1f45a8b4fd,5ff3a3c79bca6f98934e0ba9,2021-01-05_00h26.33.983,Colour_Similarity_Experiment_v1,2020.1.2,Win32,60,5ff3a352adaa099f7659f8cc,,,,,,,,,,,,,,,,,,,,PF,,,,,,,,0,1.46471,,,,,,,,,,,,,,,,,,,,,,,,,,,,6,-47.99998927,81.59999478,1,0,0,response7disk,6,48,-13.59998876,-3.200006485,1,0,0,rectangle,-13.59998876,-3.200006485,1,0,0,3,0,0,0.001475,-13.59998876,-3.200006485,1,0,0,0,47,47,0,1,,,,,,,,,,,,,,,,,,,,,
,,,,,,,,,,,,,,,,,,,,,,,,,,,,,,,,,,,,,,,,,,,5f7728d67080aa1f45a8b4fd,5ff3a3c79bca6f98934e0ba9,2021-01-05_00h26.33.983,Colour_Similarity_Experiment_v1,2020.1.2,Win32,60,5ff3a352adaa099f7659f8cc,,,,,,,,,,,,,,,,,,,,FF,,,,,,,,3,2.523775,,,,,,,,,,,,,,,,,,,,,,,,,,,,7,-52.79998934,-92.80000782,1,0,0,response5disk,8,49,-7.199988663,3.999993622,1,0,0,rectangle,116.0000132,75.19997027,1,0,0,6,6,1,1.994685,-27.19998896,-12.80000663,1,0,0,0,48,48,97,1,response1disk_3,rectangle,,,,,,,,,,,,,,,,,,,
,,,,,,,,,,,,,,,,,,,,,,,,,,,,,,,,,,,,,,,,,,,5f7728d67080aa1f45a8b4fd,5ff3a3c79bca6f98934e0ba9,2021-01-05_00h26.33.983,Colour_Similarity_Experiment_v1,2020.1.2,Win32,60,5ff3a352adaa099f7659f8cc,,,,,,,,,,,,,,,,,,,,FF,,,,,,,,4,4.81606,,,,,,,,,,,,,,,,,,,,,,,,,,,,8,54.40001225,-71.2000075,1,0,0,response3disk,4,50,-9.599988699,10.39999372,1,0,0,rectangle,-9.599988699,10.39999372,1,0,0,6,0,0,0.00087,-9.599988699,10.39999372,1,0,0,0,49,49,88,1,,,,,,,,,,,,,,,,,,,,,
,,,,,,,,,,,,,,,,,,,,,,,,,,,,,,,,,,,,,,,,,,,5f7728d67080aa1f45a8b4fd,5ff3a3c79bca6f98934e0ba9,2021-01-05_00h26.33.983,Colour_Similarity_Experiment_v1,2020.1.2,Win32,60,5ff3a352adaa099f7659f8cc,,,,,,,,,,,,,,,,,,,,PF,,,,,,,,3,3.902245,,,,,,,,,,,,,,,,,,,,,,,,,,,,7,-48.79998928,-89.6000566,1,0,0,response5disk,8,51,-6.399939823,-7.200006545,1,0,0,rectangle,-6.399939823,-7.200006545,1,0,0,6,6,0,0.001505,-6.399939823,-7.200006545,1,0,0,0,50,50,140,1,,,,,,,,,,,,,,,,,,,,,
,,,,,,,,,,,,,,,,,,,,,,,,,,,,,,,,,,,,,,,,,,,5f7728d67080aa1f45a8b4fd,5ff3a3c79bca6f98934e0ba9,2021-01-05_00h26.33.983,Colour_Similarity_Experiment_v1,2020.1.2,Win32,60,5ff3a352adaa099f7659f8cc,,,,,,,,,,,,,,,,,,,,FF,,,,,,,,4,2.311375,,,,,,,,,,,,,,,,,,,,,,,,,,,,6,47.20001215,-78.40000761,1,0,0,response3disk,3,52,7.200011551,5.599993646,1,0,0,rectangle,7.200011551,5.599993646,1,0,0,6,5,0,0.000885,7.200011551,5.599993646,1,0,0,0,51,51,21,1,,,,,,,,,,,,,,,,,,,,,
,,,,,,,,,,,,,,,,,,,,,,,,,,,,,,,,,,,,,,,,,,,5f7728d67080aa1f45a8b4fd,5ff3a3c79bca6f98934e0ba9,2021-01-05_00h26.33.983,Colour_Similarity_Experiment_v1,2020.1.2,Win32,60,5ff3a352adaa099f7659f8cc,,,,,,,,,,,,,,,,,,,,FF,,,,,,,,6,2.16112,,,,,,,,,,,,,,,,,,,,,,,,,,,,3,77.6000126,39.19996973,1,0,0,response1disk,9,53,21.60006059,2.399993598,1,0,0,rectangle,21.60006059,2.399993598,1,0,0,6,6,0,0.00117,21.60006059,2.399993598,1,0,0,0,52,52,143,1,,,,,,,,,,,,,,,,,,,,,
,,,,,,,,,,,,,,,,,,,,,,,,,,,,,,,,,,,,,,,,,,,5f7728d67080aa1f45a8b4fd,5ff3a3c79bca6f98934e0ba9,2021-01-05_00h26.33.983,Colour_Similarity_Experiment_v1,2020.1.2,Win32,60,5ff3a352adaa099f7659f8cc,,,,,,,,,,,,,,,,,,,,FF,,,,,,,,4,5.248105,,,,,,,,,,,,,,,,,,,,,,,,,,,,3,59.20001233,-83.20000768,1,0,0,response3disk,2,54,-4.799988627,-10.40000659,1,0,0,rectangle,-4.799988627,-10.40000659,1,0,0,6,1,0,0.001415,-4.799988627,-10.40000659,1,0,0,0,53,53,93,1,,,,,,,,,,,,,,,,,,,,,
,,,,,,,,,,,,,,,,,,,,,,,,,,,,,,,,,,,,,,,,,,,5f7728d67080aa1f45a8b4fd,5ff3a3c79bca6f98934e0ba9,2021-01-05_00h26.33.983,Colour_Similarity_Experiment_v1,2020.1.2,Win32,60,5ff3a352adaa099f7659f8cc,,,,,,,,,,,,,,,,,,,,PF,,,,,,,,0,1.250165,,,,,,,,,,,,,,,,,,,,,,,,,,,,8,-21.59998888,63.19997009,1,0,0,response7disk,8,55,-8.799988687,-12.80000663,1,0,0,rectangle,-8.799988687,-12.80000663,1,0,0,6,5,0,0.001785,-8.799988687,-12.80000663,1,0,0,0,54,54,153,1,,,,,,,,,,,,,,,,,,,,,
,,,,,,,,,,,,,,,,,,,,,,,,,,,,,,,,,,,,,,,,,,,5f7728d67080aa1f45a8b4fd,5ff3a3c79bca6f98934e0ba9,2021-01-05_00h26.33.983,Colour_Similarity_Experiment_v1,2020.1.2,Win32,60,5ff3a352adaa099f7659f8cc,,,,,,,,,,,,,,,,,,,,FF,,,,,,,,1,2.058075,,,,,,,,,,,,,,,,,,,,,,,,,,,,3,-50.39994048,35.19996967,1,0,0,response7disk,4,56,-8.799988687,-6.4373E-06,1,0,0,rectangle,-8.799988687,-6.4373E-06,1,0,0,6,4,0,0.001485,-8.799988687,-6.4373E-06,1,0,0,0,55,55,110,1,,,,,,,,,,,,,,,,,,,,,
,,,,,,,,,,,,,,,,,,,,,,,,,,,,,,,,,,,,,,,,,,,5f7728d67080aa1f45a8b4fd,5ff3a3c79bca6f98934e0ba9,2021-01-05_00h26.33.983,Colour_Similarity_Experiment_v1,2020.1.2,Win32,60,5ff3a352adaa099f7659f8cc,,,,,,,,,,,,,,,,,,,,FF,,,,,,,,0,1.223295,,,,,,,,,,,,,,,,,,,,,,,,,,,,9,-41.59998918,83.99999481,1,0,0,response7disk,9,57,-6.399939823,-1.600006461,1,0,0,rectangle,-6.399939823,-1.600006461,1,0,0,6,3,0,0.000655,-6.399939823,-1.600006461,1,0,0,0,56,56,17,1,,,,,,,,,,,,,,,,,,,,,
,,,,,,,,,,,,,,,,,,,,,,,,,,,,,,,,,,,,,,,,,,,5f7728d67080aa1f45a8b4fd,5ff3a3c79bca6f98934e0ba9,2021-01-05_00h26.33.983,Colour_Similarity_Experiment_v1,2020.1.2,Win32,60,5ff3a352adaa099f7659f8cc,,,,,,,,,,,,,,,,,,,,PF,,,,,,,,0,1.1823,,,,,,,,,,,,,,,,,,,,,,,,,,,,5,-24.79998893,66.39999455,1,0,0,response7disk,5,58,-3.999988616,3.19999361,1,0,0,rectangle,-3.999988616,3.19999361,1,0,0,6,3,0,0.00076,-3.999988616,3.19999361,1,0,0,0,57,57,94,1,,,,,,,,,,,,,,,,,,,,,
,,,,,,,,,,,,,,,,,,,,,,,,,,,,,,,,,,,,,,,,,,,5f7728d67080aa1f45a8b4fd,5ff3a3c79bca6f98934e0ba9,2021-01-05_00h26.33.983,Colour_Similarity_Experiment_v1,2020.1.2,Win32,60,5ff3a352adaa099f7659f8cc,,,,,,,,,,,,,,,,,,,,PF,,,,,,,,4,1.63329,,,,,,,,,,,,,,,,,,,,,,,,,,,,1,72.80001253,-83.20000768,1,0,0,response3disk,3,59,-14.39993994,7.999993682,1,0,0,rectangle,-14.39993994,7.999993682,1,0,0,6,7,0,0.001605,-14.39993994,7.999993682,1,0,0,0,58,58,1,1,,,,,,,,,,,,,,,,,,,,,
,,,,,,,,,,,,,,,,,,,,,,,,,,,,,,,,,,,,,,,,,,,5f7728d67080aa1f45a8b4fd,5ff3a3c79bca6f98934e0ba9,2021-01-05_00h26.33.983,Colour_Similarity_Experiment_v1,2020.1.2,Win32,60,5ff3a352adaa099f7659f8cc,,,,,,,,,,,,,,,,,,,,FF,,,,,,,,5,1.98136,,,,,,,,,,,,,,,,,,,,,,,,,,,,9,53.60001224,-43.20000708,1,0,0,response3disk,5,60,-1.59998858,11.99999374,1,0,0,rectangle,-1.59998858,11.99999374,1,0,0,6,7,0,0.00071,-1.59998858,11.99999374,1,0,0,0,59,59,128,1,,,,,,,,,,,,,,,,,,,,,
,,,,,,,,,,,,,,,,,,,,,,,,,,,,,,,,,,,,,,,,,,,5f7728d67080aa1f45a8b4fd,5ff3a3c79bca6f98934e0ba9,2021-01-05_00h26.33.983,Colour_Similarity_Experiment_v1,2020.1.2,Win32,60,5ff3a352adaa099f7659f8cc,,,,,,,,,,,,,,,,,,,,PF,,,,,,,,5,1.50602,,,,,,,,,,,,,,,,,,,,,,,,,,,,5,59.20001233,-44.8000071,1,0,0,response3disk,9,61,-3.999988616,5.599993646,1,0,0,rectangle,91.2000128,27.19996955,1,0,0,6,6,1,1.621965,13.60006047,1.599993587,1,0,0,0,60,60,136,1,response1disk_3,rectangle,,,,,,,,,,,,,,,,,,,
,,,,,,,,,,,,,,,,,,,,,,,,,,,,,,,,,,,,,,,,,,,5f7728d67080aa1f45a8b4fd,5ff3a3c79bca6f98934e0ba9,2021-01-05_00h26.33.983,Colour_Similarity_Experiment_v1,2020.1.2,Win32,60,5ff3a352adaa099f7659f8cc,,,,,,,,,,,,,,,,,,,,PF,,,,,,,,3,1.74859,,,,,,,,,,,,,,,,,,,,,,,,,,,,7,-42.39994036,-72.80000752,1,0,0,response5disk,5,62,15.20001167,-1.600006461,1,0,0,rectangle,15.20001167,-1.600006461,1,0,0,6,3,0,0.001145,15.20001167,-1.600006461,1,0,0,0,61,61,92,1,,,,,,,,,,,,,,,,,,,,,
,,,,,,,,,,,,,,,,,,,,,,,,,,,,,,,,,,,,,,,,,,,5f7728d67080aa1f45a8b4fd,5ff3a3c79bca6f98934e0ba9,2021-01-05_00h26.33.983,Colour_Similarity_Experiment_v1,2020.1.2,Win32,60,5ff3a352adaa099f7659f8cc,,,,,,,,,,,,,,,,,,,,PF,,,,,,,,3,1.599205,,,,,,,,,,,,,,,,,,,,,,,,,,,,7,-37.59998912,-64.8000074,1,0,0,response5disk,3,63,-1.59998858,-10.40000659,1,0,0,rectangle,-1.59998858,-10.40000659,1,0,0,6,6,0,0.002465,-1.59998858,-10.40000659,1,0,0,0,62,62,81,1,,,,,,,,,,,,,,,,,,,,,
,,,,,,,,,,,,,,,,,,,,,,,,,,,,,,,,,,,,,,,,,,,5f7728d67080aa1f45a8b4fd,5ff3a3c79bca6f98934e0ba9,2021-01-05_00h26.33.983,Colour_Similarity_Experiment_v1,2020.1.2,Win32,60,5ff3a352adaa099f7659f8cc,,,,,,,,,,,,,,,,,,,,FF,,,,,,,,3,2.23957,,,,,,,,,,,,,,,,,,,,,,,,,,,,2,-57.59998941,-99.20000792,1,0,0,response5disk,3,64,-6.399939823,-11.2000066,1,0,0,rectangle,104.800013,-25.60000682,1,0,0,5,5,1,2.15001,-5.599988639,11.19999373,1,0,0,0,63,63,104,1,response3disk_3,rectangle,,,,,,,,,,,,,,,,,,,
,,,,,,,,,,,,,,,,,,,,,,,,,,,,,,,,,,,,,,,,,,,5f7728d67080aa1f45a8b4fd,5ff3a3c79bca6f98934e0ba9,2021-01-05_00h26.33.983,Colour_Similarity_Experiment_v1,2020.1.2,Win32,60,5ff3a352adaa099f7659f8cc,,,,,,,,,,,,,,,,,,,,PF,,,,,,,,3,2.781235,,,,,,,,,,,,,,,,,,,,,,,,,,,,2,-51.19998932,-79.20000762,1,0,0,response5disk,4,65,-3.199988604,4.799993634,1,0,0,rectangle,-3.199988604,4.799993634,1,0,0,5,5,0,0.001035,-3.199988604,4.799993634,1,0,0,0,64,64,127,1,,,,,,,,,,,,,,,,,,,,,
,,,,,,,,,,,,,,,,,,,,,,,,,,,,,,,,,,,,,,,,,,,5f7728d67080aa1f45a8b4fd,5ff3a3c79bca6f98934e0ba9,2021-01-05_00h26.33.983,Colour_Similarity_Experiment_v1,2020.1.2,Win32,60,5ff3a352adaa099f7659f8cc,,,,,,,,,,,,,,,,,,,,PF,,,,,,,,6,1.8203,,,,,,,,,,,,,,,,,,,,,,,,,,,,3,94.40001285,39.19996973,1,0,0,response1disk,8,66,15.20001167,7.999993682,1,0,0,rectangle,15.20001167,7.999993682,1,0,0,5,2,0,0.00135,15.20001167,7.999993682,1,0,0,0,65,65,3,1,,,,,,,,,,,,,,,,,,,,,
,,,,,,,,,,,,,,,,,,,,,,,,,,,,,,,,,,,,,,,,,,,5f7728d67080aa1f45a8b4fd,5ff3a3c79bca6f98934e0ba9,2021-01-05_00h26.33.983,Colour_Similarity_Experiment_v1,2020.1.2,Win32,60,5ff3a352adaa099f7659f8cc,,,,,,,,,,,,,,,,,,,,FF,,,,,,,,6,1.85944,,,,,,,,,,,,,,,,,,,,,,,,,,,,3,102.400013,47.99999428,1,0,0,response1disk,7,67,10.4000116,13.59999377,1,0,0,rectangle,10.4000116,13.59999377,1,0,0,5,1,0,0.000995,10.4000116,13.59999377,1,0,0,0,66,66,118,1,,,,,,,,,,,,,,,,,,,,,
,,,,,,,,,,,,,,,,,,,,,,,,,,,,,,,,,,,,,,,,,,,5f7728d67080aa1f45a8b4fd,5ff3a3c79bca6f98934e0ba9,2021-01-05_00h26.33.983,Colour_Similarity_Experiment_v1,2020.1.2,Win32,60,5ff3a352adaa099f7659f8cc,,,,,,,,,,,,,,,,,,,,FF,,,,,,,,7,1.61798,,,,,,,,,,,,,,,,,,,,,,,,,,,,4,55.20001227,104.7999951,1,0,0,response1disk,9,68,1.600060296,-4.800006509,1,0,0,rectangle,1.600060296,-4.800006509,1,0,0,5,3,0,0.002385,1.600060296,-4.800006509,1,0,0,0,67,67,90,1,,,,,,,,,,,,,,,,,,,,,
,,,,,,,,,,,,,,,,,,,,,,,,,,,,,,,,,,,,,,,,,,,5f7728d67080aa1f45a8b4fd,5ff3a3c79bca6f98934e0ba9,2021-01-05_00h26.33.983,Colour_Similarity_Experiment_v1,2020.1.2,Win32,60,5ff3a352adaa099f7659f8cc,,,,,,,,,,,,,,,,,,,,FF,,,,,,,,7,1.657385,,,,,,,,,,,,,,,,,,,,,,,,,,,,1,47.20001215,75.19997027,1,0,0,response1disk,5,69,-11.19998872,-12.00000662,1,0,0,rectangle,-11.19998872,-12.00000662,1,0,0,5,2,0,0.010845,-11.19998872,-12.00000662,1,0,0,0,68,68,82,1,,,,,,,,,,,,,,,,,,,,,
,,,,,,,,,,,,,,,,,,,,,,,,,,,,,,,,,,,,,,,,,,,5f7728d67080aa1f45a8b4fd,5ff3a3c79bca6f98934e0ba9,2021-01-05_00h26.33.983,Colour_Similarity_Experiment_v1,2020.1.2,Win32,60,5ff3a352adaa099f7659f8cc,,,,,,,,,,,,,,,,,,,,FF,,,,,,,,1,1.934015,,,,,,,,,,,,,,,,,,,,,,,,,,,,1,-46.39994042,34.39999408,1,0,0,response7disk,9,70,-13.59998876,7.999993682,1,0,0,rectangle,-13.59998876,7.999993682,1,0,0,5,2,0,0.00151,-13.59998876,7.999993682,1,0,0,0,69,69,123,1,,,,,,,,,,,,,,,,,,,,,
,,,,,,,,,,,,,,,,,,,,,,,,,,,,,,,,,,,,,,,,,,,5f7728d67080aa1f45a8b4fd,5ff3a3c79bca6f98934e0ba9,2021-01-05_00h26.33.983,Colour_Similarity_Experiment_v1,2020.1.2,Win32,60,5ff3a352adaa099f7659f8cc,,,,,,,,,,,,,,,,,,,,FF,,,,,,,,1,1.682845,,,,,,,,,,,,,,,,,,,,,,,,,,,,4,-66.39994072,39.99999416,1,0,0,response7disk,3,71,12.00001162,-6.4373E-06,1,0,0,rectangle,12.00001162,-6.4373E-06,1,0,0,5,2,0,0.00148,12.00001162,-6.4373E-06,1,0,0,0,70,70,77,1,,,,,,,,,,,,,,,,,,,,,
,,,,,,,,,,,,,,,,,,,,,,,,,,,,,,,,,,,,,,,,,,,5f7728d67080aa1f45a8b4fd,5ff3a3c79bca6f98934e0ba9,2021-01-05_00h26.33.983,Colour_Similarity_Experiment_v1,2020.1.2,Win32,60,5ff3a352adaa099f7659f8cc,,,,,,,,,,,,,,,,,,,,FF,,,,,,,,7,1.89641,,,,,,,,,,,,,,,,,,,,,,,,,,,,9,72.00001252,93.59999496,1,0,0,response1disk,7,72,1.14441E-05,-9.60000658,1,0,0,rectangle,1.14441E-05,-9.60000658,1,0,0,5,4,0,0.000885,1.14441E-05,-9.60000658,1,0,0,0,71,71,100,1,,,,,,,,,,,,,,,,,,,,,
,,,,,,,,,,,,,,,,,,,,,,,,,,,,,,,,,,,,,,,,,,,5f7728d67080aa1f45a8b4fd,5ff3a3c79bca6f98934e0ba9,2021-01-05_00h26.33.983,Colour_Similarity_Experiment_v1,2020.1.2,Win32,60,5ff3a352adaa099f7659f8cc,,,,,,,,,,,,,,,,,,,,FF,,,,,,,,6,1.81594,,,,,,,,,,,,,,,,,,,,,,,,,,,,4,112.0000131,44.79999423,1,0,0,response1disk,8,73,18.40001172,10.39999372,1,0,0,rectangle,18.40001172,10.39999372,1,0,0,5,1,0,0.001215,18.40001172,10.39999372,1,0,0,0,72,72,35,1,,,,,,,,,,,,,,,,,,,,,
,,,,,,,,,,,,,,,,,,,,,,,,,,,,,,,,,,,,,,,,,,,5f7728d67080aa1f45a8b4fd,5ff3a3c79bca6f98934e0ba9,2021-01-05_00h26.33.983,Colour_Similarity_Experiment_v1,2020.1.2,Win32,60,5ff3a352adaa099f7659f8cc,,,,,,,,,,,,,,,,,,,,PF,,,,,,,,1,1.678425,,,,,,,,,,,,,,,,,,,,,,,,,,,,4,-63.99998951,38.39999413,1,0,0,response7disk,3,74,8.800011575,-6.4373E-06,1,0,0,rectangle,8.800011575,-6.4373E-06,1,0,0,5,7,0,0.00153,8.800011575,-6.4373E-06,1,0,0,0,73,73,89,1,,,,,,,,,,,,,,,,,,,,,
,,,,,,,,,,,,,,,,,,,,,,,,,,,,,,,,,,,,,,,,,,,5f7728d67080aa1f45a8b4fd,5ff3a3c79bca6f98934e0ba9,2021-01-05_00h26.33.983,Colour_Similarity_Experiment_v1,2020.1.2,Win32,60,5ff3a352adaa099f7659f8cc,,,,,,,,,,,,,,,,,,,,FF,,,,,,,,6,1.84866,,,,,,,,,,,,,,,,,,,,,,,,,,,,7,80.80001265,40.79999417,1,0,0,response1disk,2,75,9.600060415,3.19999361,1,0,0,rectangle,9.600060415,3.19999361,1,0,0,5,4,0,0.001905,9.600060415,3.19999361,1,0,0,0,74,74,138,1,,,,,,,,,,,,,,,,,,,,,
,,,,,,,,,,,,,,,,,,,,,,,,,,,,,,,,,,,,,,,,,,,5f7728d67080aa1f45a8b4fd,5ff3a3c79bca6f98934e0ba9,2021-01-05_00h26.33.983,Colour_Similarity_Experiment_v1,2020.1.2,Win32,60,5ff3a352adaa099f7659f8cc,,,,,,,,,,,,,,,,,,,,FF,,,,,,,,2,1.752325,,,,,,,,,,,,,,,,,,,,,,,,,,,,1,-79.19998974,-30.40000689,1,0,0,response5disk,2,76,13.60006047,-4.000006497,1,0,0,rectangle,13.60006047,-4.000006497,1,0,0,5,1,0,0.009835,13.60006047,-4.000006497,1,0,0,0,75,75,2,1,,,,,,,,,,,,,,,,,,,,,
,,,,,,,,,,,,,,,,,,,,,,,,,,,,,,,,,,,,,,,,,,,5f7728d67080aa1f45a8b4fd,5ff3a3c79bca6f98934e0ba9,2021-01-05_00h26.33.983,Colour_Similarity_Experiment_v1,2020.1.2,Win32,60,5ff3a352adaa099f7659f8cc,,,,,,,,,,,,,,,,,,,,PF,,,,,,,,0,1.471815,,,,,,,,,,,,,,,,,,,,,,,,,,,,9,-15.99998879,75.19997027,1,0,0,response7disk,9,77,-3.999988616,5.599993646,1,0,0,rectangle,-3.999988616,5.599993646,1,0,0,5,1,0,0.00118,-3.999988616,5.599993646,1,0,0,0,76,76,106,1,,,,,,,,,,,,,,,,,,,,,
,,,,,,,,,,,,,,,,,,,,,,,,,,,,,,,,,,,,,,,,,,,5f7728d67080aa1f45a8b4fd,5ff3a3c79bca6f98934e0ba9,2021-01-05_00h26.33.983,Colour_Similarity_Experiment_v1,2020.1.2,Win32,60,5ff3a352adaa099f7659f8cc,,,,,,,,,,,,,,,,,,,,PF,,,,,,,,3,2.038905,,,,,,,,,,,,,,,,,,,,,,,,,,,,6,-45.59998924,-100.0000079,1,0,0,response5disk,5,78,-15.99998879,-0.800006449,1,0,0,rectangle,-15.99998879,-0.800006449,1,0,0,5,2,0,0.00143,-15.99998879,-0.800006449,1,0,0,0,77,77,59,1,,,,,,,,,,,,,,,,,,,,,
,,,,,,,,,,,,,,,,,,,,,,,,,,,,,,,,,,,,,,,,,,,5f7728d67080aa1f45a8b4fd,5ff3a3c79bca6f98934e0ba9,2021-01-05_00h26.33.983,Colour_Similarity_Experiment_v1,2020.1.2,Win32,60,5ff3a352adaa099f7659f8cc,,,,,,,,,,,,,,,,,,,,PF,,,,,,,,7,1.501575,,,,,,,,,,,,,,,,,,,,,,,,,,,,6,48.00001216,84.79999483,1,0,0,response1disk,1,79,5.600060356,1.599993587,1,0,0,rectangle,5.600060356,1.599993587,1,0,0,5,7,0,0.00143,5.600060356,1.599993587,1,0,0,0,78,78,46,1,,,,,,,,,,,,,,,,,,,,,
,,,,,,,,,,,,,,,,,,,,,,,,,,,,,,,,,,,,,,,,,,,5f7728d67080aa1f45a8b4fd,5ff3a3c79bca6f98934e0ba9,2021-01-05_00h26.33.983,Colour_Similarity_Experiment_v1,2020.1.2,Win32,60,5ff3a352adaa099f7659f8cc,,,,,,,,,,,,,,,,,,,,PF,,,,,,,,3,2.65454,,,,,,,,,,,,,,,,,,,,,,,,,,,,2,-70.39994078,-76.00000757,1,0,0,response5disk,1,80,-9.599988699,7.19999367,1,0,0,rectangle,-9.599988699,7.19999367,1,0,0,5,2,0,0.00138,-9.599988699,7.19999367,1,0,0,0,79,79,9,1,,,,,,,,,,,,,,,,,,,,,
,,,,,,,,,,,,,,,,,,,,,,,,,,,,,,,,,,,,,,,,,,,5f7728d67080aa1f45a8b4fd,5ff3a3c79bca6f98934e0ba9,2021-01-05_00h26.33.983,Colour_Similarity_Experiment_v1,2020.1.2,Win32,60,5ff3a352adaa099f7659f8cc,,,,,,,,,,,,,,,,,,,,PF,,,,,,,,7,2.118985,,,,,,,,,,,,,,,,,,,,,,,,,,,,3,22.40001178,78.39999473,1,0,0,response1disk,7,81,-1.59998858,5.599993646,1,0,0,rectangle,-1.59998858,5.599993646,1,0,0,5,3,0,0.001035,-1.59998858,5.599993646,1,0,0,0,80,80,41,1,,,,,,,,,,,,,,,,,,,,,
,,,,,,,,,,,,,,,,,,,,,,,,,,,,,,,,,,,,,,,,,,,5f7728d67080aa1f45a8b4fd,5ff3a3c79bca6f98934e0ba9,2021-01-05_00h26.33.983,Colour_Similarity_Experiment_v1,2020.1.2,Win32,60,5ff3a352adaa099f7659f8cc,,,,,,,,,,,,,,,,,,,,FF,,,,,,,,7,2.053255,,,,,,,,,,,,,,,,,,,,,,,,,,,,8,52.80001223,94.39999497,1,0,0,response1disk,2,82,27.20001185,0.799993575,1,0,0,rectangle,27.20001185,0.799993575,1,0,0,5,7,0,0.00079,27.20001185,0.799993575,1,0,0,0,81,81,22,1,,,,,,,,,,,,,,,,,,,,,
,,,,,,,,,,,,,,,,,,,,,,,,,,,,,,,,,,,,,,,,,,,5f7728d67080aa1f45a8b4fd,5ff3a3c79bca6f98934e0ba9,2021-01-05_00h26.33.983,Colour_Similarity_Experiment_v1,2020.1.2,Win32,60,5ff3a352adaa099f7659f8cc,,,,,,,,,,,,,,,,,,,,PF,,,,,,,,6,2.218285,,,,,,,,,,,,,,,,,,,,,,,,,,,,5,90.40001279,45.59999424,1,0,0,response1disk,2,83,16.80001169,6.399993658,1,0,0,rectangle,16.80001169,6.399993658,1,0,0,5,6,0,0.001115,16.80001169,6.399993658,1,0,0,0,82,82,129,1,,,,,,,,,,,,,,,,,,,,,
,,,,,,,,,,,,,,,,,,,,,,,,,,,,,,,,,,,,,,,,,,,5f7728d67080aa1f45a8b4fd,5ff3a3c79bca6f98934e0ba9,2021-01-05_00h26.33.983,Colour_Similarity_Experiment_v1,2020.1.2,Win32,60,5ff3a352adaa099f7659f8cc,,,,,,,,,,,,,,,,,,,,PF,,,,,,,,5,2.402925,,,,,,,,,,,,,,,,,,,,,,,,,,,,4,76.00001258,-17.6000067,1,0,0,response3disk,2,84,4.000011504,-3.200006485,1,0,0,rectangle,4.000011504,-3.200006485,1,0,0,5,2,0,0.00145,4.000011504,-3.200006485,1,0,0,0,83,83,108,1,,,,,,,,,,,,,,,,,,,,,
,,,,,,,,,,,,,,,,,,,,,,,,,,,,,,,,,,,,,,,,,,,5f7728d67080aa1f45a8b4fd,5ff3a3c79bca6f98934e0ba9,2021-01-05_00h26.33.983,Colour_Similarity_Experiment_v1,2020.1.2,Win32,60,5ff3a352adaa099f7659f8cc,,,,,,,,,,,,,,,,,,,,FF,,,,,,,,7,1.8252,,,,,,,,,,,,,,,,,,,,,,,,,,,,4,52.00001222,86.39999485,1,0,0,response1disk,1,85,12.00001162,4.799993634,1,0,0,rectangle,12.00001162,4.799993634,1,0,0,5,6,0,0.000885,12.00001162,4.799993634,1,0,0,0,84,84,102,1,,,,,,,,,,,,,,,,,,,,,
,,,,,,,,,,,,,,,,,,,,,,,,,,,,,,,,,,,,,,,,,,,5f7728d67080aa1f45a8b4fd,5ff3a3c79bca6f98934e0ba9,2021-01-05_00h26.33.983,Colour_Similarity_Experiment_v1,2020.1.2,Win32,60,5ff3a352adaa099f7659f8cc,,,,,,,,,,,,,,,,,,,,FF,,,,,,,,2,2.22386,,,,,,,,,,,,,,,,,,,,,,,,,,,,5,-55.99998939,-29.60000688,1,0,0,response5disk,4,86,-15.99998879,3.19999361,1,0,0,rectangle,-15.99998879,3.19999361,1,0,0,5,4,0,0.000965,-15.99998879,3.19999361,1,0,0,0,85,85,8,1,,,,,,,,,,,,,,,,,,,,,
,,,,,,,,,,,,,,,,,,,,,,,,,,,,,,,,,,,,,,,,,,,5f7728d67080aa1f45a8b4fd,5ff3a3c79bca6f98934e0ba9,2021-01-05_00h26.33.983,Colour_Similarity_Experiment_v1,2020.1.2,Win32,60,5ff3a352adaa099f7659f8cc,,,,,,,,,,,,,,,,,,,,FF,,,,,,,,3,2.21533,,,,,,,,,,,,,,,,,,,,,,,,,,,,9,-51.99998933,-85.60005654,1,0,0,response5disk,1,87,-6.399939823,0.799993575,1,0,0,rectangle,-6.399939823,0.799993575,1,0,0,5,5,0,0.004445,-6.399939823,0.799993575,1,0,0,0,86,86,111,1,,,,,,,,,,,,,,,,,,,,,
,,,,,,,,,,,,,,,,,,,,,,,,,,,,,,,,,,,,,,,,,,,5f7728d67080aa1f45a8b4fd,5ff3a3c79bca6f98934e0ba9,2021-01-05_00h26.33.983,Colour_Similarity_Experiment_v1,2020.1.2,Win32,60,5ff3a352adaa099f7659f8cc,,,,,,,,,,,,,,,,,,,,FF,,,,,,,,5,1.53205,,,,,,,,,,,,,,,,,,,,,,,,,,,,8,103.200013,-40.80000705,1,0,0,response3disk,3,88,-6.399939823,-12.00000662,1,0,0,rectangle,-6.399939823,-12.00000662,1,0,0,5,7,0,0.000835,-6.399939823,-12.00000662,1,0,0,0,87,87,154,1,,,,,,,,,,,,,,,,,,,,,
,,,,,,,,,,,,,,,,,,,,,,,,,,,,,,,,,,,,,,,,,,,5f7728d67080aa1f45a8b4fd,5ff3a3c79bca6f98934e0ba9,2021-01-05_00h26.33.983,Colour_Similarity_Experiment_v1,2020.1.2,Win32,60,5ff3a352adaa099f7659f8cc,,,,,,,,,,,,,,,,,,,,FF,,,,,,,,7,1.5201,,,,,,,,,,,,,,,,,,,,,,,,,,,,7,59.20001233,79.19997033,1,0,0,response1disk,1,89,11.20001161,11.19999373,1,0,0,rectangle,11.20001161,11.19999373,1,0,0,5,6,0,0.00094,11.20001161,11.19999373,1,0,0,0,88,88,132,1,,,,,,,,,,,,,,,,,,,,,
,,,,,,,,,,,,,,,,,,,,,,,,,,,,,,,,,,,,,,,,,,,5f7728d67080aa1f45a8b4fd,5ff3a3c79bca6f98934e0ba9,2021-01-05_00h26.33.983,Colour_Similarity_Experiment_v1,2020.1.2,Win32,60,5ff3a352adaa099f7659f8cc,,,,,,,,,,,,,,,,,,,,FF,,,,,,,,0,1.637605,,,,,,,,,,,,,,,,,,,,,,,,,,,,6,-38.3999403,61.59999448,1,0,0,response7disk,6,90,5.600060356,-2.400006473,1,0,0,rectangle,5.600060356,-2.400006473,1,0,0,5,4,0,0.00122,5.600060356,-2.400006473,1,0,0,0,89,89,91,1,,,,,,,,,,,,,,,,,,,,,
,,,,,,,,,,,,,,,,,,,,,,,,,,,,,,,,,,,,,,,,,,,5f7728d67080aa1f45a8b4fd,5ff3a3c79bca6f98934e0ba9,2021-01-05_00h26.33.983,Colour_Similarity_Experiment_v1,2020.1.2,Win32,60,5ff3a352adaa099f7659f8cc,,,,,,,,,,,,,,,,,,,,PF,,,,,,,,4,2.0254,,,,,,,,,,,,,,,,,,,,,,,,,,,,3,44.80001211,-57.6000073,1,0,0,response3disk,2,91,0.800011456,1.599993587,1,0,0,rectangle,80.80001265,32.79999405,1,0,0,6,6,1,1.54021,32.00001192,3.19999361,1,0,0,0,90,90,36,1,response1disk_3,rectangle,,,,,,,,,,,,,,,,,,,
,,,,,,,,,,,,,,,,,,,,,,,,,,,,,,,,,,,,,,,,,,,5f7728d67080aa1f45a8b4fd,5ff3a3c79bca6f98934e0ba9,2021-01-05_00h26.33.983,Colour_Similarity_Experiment_v1,2020.1.2,Win32,60,5ff3a352adaa099f7659f8cc,,,,,,,,,,,,,,,,,,,,FF,,,,,,,,0,1.35664,,,,,,,,,,,,,,,,,,,,,,,,,,,,1,-40.79998916,58.39999443,1,0,0,response7disk,1,92,2.40001148,-4.000006497,1,0,0,rectangle,2.40001148,-4.000006497,1,0,0,6,4,0,0.00135,2.40001148,-4.000006497,1,0,0,0,91,91,151,1,,,,,,,,,,,,,,,,,,,,,
,,,,,,,,,,,,,,,,,,,,,,,,,,,,,,,,,,,,,,,,,,,5f7728d67080aa1f45a8b4fd,5ff3a3c79bca6f98934e0ba9,2021-01-05_00h26.33.983,Colour_Similarity_Experiment_v1,2020.1.2,Win32,60,5ff3a352adaa099f7659f8cc,,,,,,,,,,,,,,,,,,,,PF,,,,,,,,2,1.638085,,,,,,,,,,,,,,,,,,,,,,,,,,,,1,-77.59998971,-40.00000703,1,0,0,response5disk,9,93,-9.599988699,-4.000006497,1,0,0,rectangle,-9.599988699,-4.000006497,1,0,0,6,0,0,0.006325,-9.599988699,-4.000006497,1,0,0,0,92,92,15,1,,,,,,,,,,,,,,,,,,,,,
,,,,,,,,,,,,,,,,,,,,,,,,,,,,,,,,,,,,,,,,,,,5f7728d67080aa1f45a8b4fd,5ff3a3c79bca6f98934e0ba9,2021-01-05_00h26.33.983,Colour_Similarity_Experiment_v1,2020.1.2,Win32,60,5ff3a352adaa099f7659f8cc,,,,,,,,,,,,,,,,,,,,FF,,,,,,,,6,1.85947,,,,,,,,,,,,,,,,,,,,,,,,,,,,7,106.400013,22.3999939,1,0,0,response1disk,3,94,9.600060415,0.799993575,1,0,0,rectangle,9.600060415,0.799993575,1,0,0,6,6,0,0.00197,9.600060415,0.799993575,1,0,0,0,93,93,73,1,,,,,,,,,,,,,,,,,,,,,
,,,,,,,,,,,,,,,,,,,,,,,,,,,,,,,,,,,,,,,,,,,5f7728d67080aa1f45a8b4fd,5ff3a3c79bca6f98934e0ba9,2021-01-05_00h26.33.983,Colour_Similarity_Experiment_v1,2020.1.2,Win32,60,5ff3a352adaa099f7659f8cc,,,,,,,,,,,,,,,,,,,,PF,,,,,,,,6,1.71468,,,,,,,,,,,,,,,,,,,,,,,,,,,,8,116.0000132,69.5999946,1,0,0,response1disk,2,95,-12.79998875,-6.4373E-06,1,0,0,rectangle,-12.79998875,-6.4373E-06,1,0,0,6,2,0,0.020615,-12.79998875,-6.4373E-06,1,0,0,0,94,94,83,1,,,,,,,,,,,,,,,,,,,,,
,,,,,,,,,,,,,,,,,,,,,,,,,,,,,,,,,,,,,,,,,,,5f7728d67080aa1f45a8b4fd,5ff3a3c79bca6f98934e0ba9,2021-01-05_00h26.33.983,Colour_Similarity_Experiment_v1,2020.1.2,Win32,60,5ff3a352adaa099f7659f8cc,,,,,,,,,,,,,,,,,,,,FF,,,,,,,,7,1.642185,,,,,,,,,,,,,,,,,,,,,,,,,,,,9,59.20001233,73.59999466,1,0,0,response1disk,2,96,21.60006059,7.999993682,1,0,0,rectangle,-75.99998969,-33.60000694,1,0,0,6,2,1,2.100045,8.800011575,-7.200006545,1,0,0,0,95,95,11,1,response5disk_3,rectangle,,,,,,,,,,,,,,,,,,,
,,,,,,,,,,,,,,,,,,,,,,,,,,,,,,,,,,,,,,,,,,,5f7728d67080aa1f45a8b4fd,5ff3a3c79bca6f98934e0ba9,2021-01-05_00h26.33.983,Colour_Similarity_Experiment_v1,2020.1.2,Win32,60,5ff3a352adaa099f7659f8cc,,,,,,,,,,,,,,,,,,,,FF,,,,,,,,3,1.820735,,,,,,,,,,,,,,,,,,,,,,,,,,,,4,-31.99998903,-79.20000762,1,0,0,response5disk,6,97,-7.999988675,-6.4373E-06,1,0,0,rectangle,-7.999988675,-6.4373E-06,1,0,0,6,2,0,0.002795,-7.999988675,-6.4373E-06,1,0,0,0,96,96,122,1,,,,,,,,,,,,,,,,,,,,,
,,,,,,,,,,,,,,,,,,,,,,,,,,,,,,,,,,,,,,,,,,,5f7728d67080aa1f45a8b4fd,5ff3a3c79bca6f98934e0ba9,2021-01-05_00h26.33.983,Colour_Similarity_Experiment_v1,2020.1.2,Win32,60,5ff3a352adaa099f7659f8cc,,,,,,,,,,,,,,,,,,,,PF,,,,,,,,6,2.375345,,,,,,,,,,,,,,,,,,,,,,,,,,,,4,125.6000133,91.99999493,1,0,0,response1disk,8,98,-35.19998908,-6.400006533,1,0,0,rectangle,-35.19998908,-6.400006533,1,0,0,6,2,0,0.00106,-35.19998908,-6.400006533,1,0,0,0,97,97,124,1,,,,,,,,,,,,,,,,,,,,,
,,,,,,,,,,,,,,,,,,,,,,,,,,,,,,,,,,,,,,,,,,,5f7728d67080aa1f45a8b4fd,5ff3a3c79bca6f98934e0ba9,2021-01-05_00h26.33.983,Colour_Similarity_Experiment_v1,2020.1.2,Win32,60,5ff3a352adaa099f7659f8cc,,,,,,,,,,,,,,,,,,,,PF,,,,,,,,6,1.20065,,,,,,,,,,,,,,,,,,,,,,,,,,,,6,78.40001261,35.19996967,1,0,0,response1disk,4,99,37.60006083,5.599993646,1,0,0,rectangle,37.60006083,5.599993646,1,0,0,6,0,0,0.000925,37.60006083,5.599993646,1,0,0,0,98,98,33,1,,,,,,,,,,,,,,,,,,,,,
,,,,,,,,,,,,,,,,,,,,,,,,,,,,,,,,,,,,,,,,,,,5f7728d67080aa1f45a8b4fd,5ff3a3c79bca6f98934e0ba9,2021-01-05_00h26.33.983,Colour_Similarity_Experiment_v1,2020.1.2,Win32,60,5ff3a352adaa099f7659f8cc,,,,,,,,,,,,,,,,,,,,FF,,,,,,,,7,1.9624,,,,,,,,,,,,,,,,,,,,,,,,,,,,9,50.4000122,84.79999483,1,0,0,response1disk,6,100,2.40001148,9.599993706,1,0,0,rectangle,2.40001148,9.599993706,1,0,0,6,1,0,0.001495,2.40001148,9.599993706,1,0,0,0,99,99,117,1,,,,,,,,,,,,,,,,,,,,,
,,,,,,,,,,,,,,,,,,,,,,,,,,,,,,,,,,,,,,,,,,,5f7728d67080aa1f45a8b4fd,5ff3a3c79bca6f98934e0ba9,2021-01-05_00h26.33.983,Colour_Similarity_Experiment_v1,2020.1.2,Win32,60,5ff3a352adaa099f7659f8cc,,,,,,,,,,,,,,,,,,,,PF,,,,,,,,7,1.971715,,,,,,,,,,,,,,,,,,,,,,,,,,,,3,43.20001209,84.79999483,1,0,0,response1disk,1,101,5.600060356,11.19999373,1,0,0,rectangle,5.600060356,11.19999373,1,0,0,6,7,0,0.001345,5.600060356,11.19999373,1,0,0,0,100,100,96,1,,,,,,,,,,,,,,,,,,,,,
,,,,,,,,,,,,,,,,,,,,,,,,,,,,,,,,,,,,,,,,,,,5f7728d67080aa1f45a8b4fd,5ff3a3c79bca6f98934e0ba9,2021-01-05_00h26.33.983,Colour_Similarity_Experiment_v1,2020.1.2,Win32,60,5ff3a352adaa099f7659f8cc,,,,,,,,,,,,,,,,,,,,PF,,,,,,,,4,2.181345,,,,,,,,,,,,,,,,,,,,,,,,,,,,7,27.20001185,-75.20000756,1,0,0,response3disk,9,102,14.40001166,3.19999361,1,0,0,rectangle,14.40001166,3.19999361,1,0,0,6,2,0,0.00108,14.40001166,3.19999361,1,0,0,0,101,101,10,1,,,,,,,,,,,,,,,,,,,,,
,,,,,,,,,,,,,,,,,,,,,,,,,,,,,,,,,,,,,,,,,,,5f7728d67080aa1f45a8b4fd,5ff3a3c79bca6f98934e0ba9,2021-01-05_00h26.33.983,Colour_Similarity_Experiment_v1,2020.1.2,Win32,60,5ff3a352adaa099f7659f8cc,,,,,,,,,,,,,,,,,,,,PF,,,,,,,,5,1.720965,,,,,,,,,,,,,,,,,,,,,,,,,,,,7,108.0000131,-35.20000696,1,0,0,response3disk,4,103,8.800011575,-2.400006473,1,0,0,rectangle,8.800011575,-2.400006473,1,0,0,6,2,0,0.001355,8.800011575,-2.400006473,1,0,0,0,102,102,43,1,,,,,,,,,,,,,,,,,,,,,
,,,,,,,,,,,,,,,,,,,,,,,,,,,,,,,,,,,,,,,,,,,5f7728d67080aa1f45a8b4fd,5ff3a3c79bca6f98934e0ba9,2021-01-05_00h26.33.983,Colour_Similarity_Experiment_v1,2020.1.2,Win32,60,5ff3a352adaa099f7659f8cc,,,,,,,,,,,,,,,,,,,,PF,,,,,,,,6,1.811505,,,,,,,,,,,,,,,,,,,,,,,,,,,,2,92.00001281,26.39999396,1,0,0,response1disk,8,104,2.40001148,-5.600006521,1,0,0,rectangle,2.40001148,-5.600006521,1,0,0,6,1,0,0.00097,2.40001148,-5.600006521,1,0,0,0,103,103,52,1,,,,,,,,,,,,,,,,,,,,,
,,,,,,,,,,,,,,,,,,,,,,,,,,,,,,,,,,,,,,,,,,,5f7728d67080aa1f45a8b4fd,5ff3a3c79bca6f98934e0ba9,2021-01-05_00h26.33.983,Colour_Similarity_Experiment_v1,2020.1.2,Win32,60,5ff3a352adaa099f7659f8cc,,,,,,,,,,,,,,,,,,,,PF,,,,,,,,4,3.205405,,,,,,,,,,,,,,,,,,,,,,,,,,,,1,40.00001204,-85.60005654,1,0,0,response3disk,8,105,1.600060296,-8.000006557,1,0,0,rectangle,1.600060296,-8.000006557,1,0,0,6,5,0,0.001,1.600060296,-8.000006557,1,0,0,0,104,104,65,1,,,,,,,,,,,,,,,,,,,,,
,,,,,,,,,,,,,,,,,,,,,,,,,,,,,,,,,,,,,,,,,,,5f7728d67080aa1f45a8b4fd,5ff3a3c79bca6f98934e0ba9,2021-01-05_00h26.33.983,Colour_Similarity_Experiment_v1,2020.1.2,Win32,60,5ff3a352adaa099f7659f8cc,,,,,,,,,,,,,,,,,,,,PF,,,,,,,,2,1.80913,,,,,,,,,,,,,,,,,,,,,,,,,,,,1,-70.39994078,-56.80000728,1,0,0,response5disk,2,106,3.200011492,-8.800006568,1,0,0,rectangle,3.200011492,-8.800006568,1,0,0,6,2,0,0.00119,3.200011492,-8.800006568,1,0,0,0,105,105,24,1,,,,,,,,,,,,,,,,,,,,,
,,,,,,,,,,,,,,,,,,,,,,,,,,,,,,,,,,,,,,,,,,,5f7728d67080aa1f45a8b4fd,5ff3a3c79bca6f98934e0ba9,2021-01-05_00h26.33.983,Colour_Similarity_Experiment_v1,2020.1.2,Win32,60,5ff3a352adaa099f7659f8cc,,,,,,,,,,,,,,,,,,,,PF,,,,,,,,3,1.969125,,,,,,,,,,,,,,,,,,,,,,,,,,,,8,-58.3999406,-116.8000082,1,0,0,response5disk,6,107,-27.99998897,1.599993587,1,0,0,rectangle,-44.79998922,-115.2000082,1,0,0,3,3,1,2.46978,1.14441E-05,-7.200006545,1,0,0,0,106,106,161,1,response5disk_3,rectangle,,,,,,,,,,,,,,,,,,,
,,,,,,,,,,,,,,,,,,,,,,,,,,,,,,,,,,,,,,,,,,,5f7728d67080aa1f45a8b4fd,5ff3a3c79bca6f98934e0ba9,2021-01-05_00h26.33.983,Colour_Similarity_Experiment_v1,2020.1.2,Win32,60,5ff3a352adaa099f7659f8cc,,,,,,,,,,,,,,,,,,,,FF,,,,,,,,2,4.699135,,,,,,,,,,,,,,,,,,,,,,,,,,,,7,-83.1999898,-36.80000699,1,0,0,response5disk,5,108,-10.39993988,-4.000006497,1,0,0,rectangle,-10.39993988,-4.000006497,1,0,0,3,1,0,0.001025,-10.39993988,-4.000006497,1,0,0,0,107,107,156,1,,,,,,,,,,,,,,,,,,,,,
,,,,,,,,,,,,,,,,,,,,,,,,,,,,,,,,,,,,,,,,,,,5f7728d67080aa1f45a8b4fd,5ff3a3c79bca6f98934e0ba9,2021-01-05_00h26.33.983,Colour_Similarity_Experiment_v1,2020.1.2,Win32,60,5ff3a352adaa099f7659f8cc,,,,,,,,,,,,,,,,,,,,PF,,,,,,,,6,2.21912,,,,,,,,,,,,,,,,,,,,,,,,,,,,8,99.20001292,21.59999388,1,0,0,response1disk,3,109,-6.399939823,-8.800006568,1,0,0,rectangle,-6.399939823,-8.800006568,1,0,0,3,2,0,0.006485,-6.399939823,-8.800006568,1,0,0,0,108,108,71,1,,,,,,,,,,,,,,,,,,,,,
,,,,,,,,,,,,,,,,,,,,,,,,,,,,,,,,,,,,,,,,,,,5f7728d67080aa1f45a8b4fd,5ff3a3c79bca6f98934e0ba9,2021-01-05_00h26.33.983,Colour_Similarity_Experiment_v1,2020.1.2,Win32,60,5ff3a352adaa099f7659f8cc,,,,,,,,,,,,,,,,,,,,FF,,,,,,,,7,1.265105,,,,,,,,,,,,,,,,,,,,,,,,,,,,5,42.40001208,77.59999472,1,0,0,response1disk,9,110,0.800011456,-0.800006449,1,0,0,rectangle,0.800011456,-0.800006449,1,0,0,3,6,0,0.00078,0.800011456,-0.800006449,1,0,0,0,109,109,61,1,,,,,,,,,,,,,,,,,,,,,
,,,,,,,,,,,,,,,,,,,,,,,,,,,,,,,,,,,,,,,,,,,5f7728d67080aa1f45a8b4fd,5ff3a3c79bca6f98934e0ba9,2021-01-05_00h26.33.983,Colour_Similarity_Experiment_v1,2020.1.2,Win32,60,5ff3a352adaa099f7659f8cc,,,,,,,,,,,,,,,,,,,,FF,,,,,,,,6,1.84451,,,,,,,,,,,,,,,,,,,,,,,,,,,,1,92.00001281,54.39999437,1,0,0,response1disk,6,111,29.60006071,10.39999372,1,0,0,rectangle,29.60006071,10.39999372,1,0,0,3,2,0,0.001715,29.60006071,10.39999372,1,0,0,0,110,110,58,1,,,,,,,,,,,,,,,,,,,,,
,,,,,,,,,,,,,,,,,,,,,,,,,,,,,,,,,,,,,,,,,,,5f7728d67080aa1f45a8b4fd,5ff3a3c79bca6f98934e0ba9,2021-01-05_00h26.33.983,Colour_Similarity_Experiment_v1,2020.1.2,Win32,60,5ff3a352adaa099f7659f8cc,,,,,,,,,,,,,,,,,,,,FF,,,,,,,,6,1.21197,,,,,,,,,,,,,,,,,,,,,,,,,,,,4,85.60001272,60.79999447,1,0,0,response1disk,2,112,8.000011563,7.999993682,1,0,0,rectangle,8.000011563,7.999993682,1,0,0,3,3,0,0.00074,8.000011563,7.999993682,1,0,0,0,111,111,13,1,,,,,,,,,,,,,,,,,,,,,
,,,,,,,,,,,,,,,,,,,,,,,,,,,,,,,,,,,,,,,,,,,5f7728d67080aa1f45a8b4fd,5ff3a3c79bca6f98934e0ba9,2021-01-05_00h26.33.983,Colour_Similarity_Experiment_v1,2020.1.2,Win32,60,5ff3a352adaa099f7659f8cc,,,,,,,,,,,,,,,,,,,,FF,,,,,,,,2,2.216245,,,,,,,,,,,,,,,,,,,,,,,,,,,,5,-69.59998959,-43.20000708,1,0,0,response5disk,3,113,13.60006047,-5.600006521,1,0,0,rectangle,13.60006047,-5.600006521,1,0,0,3,1,0,0.00136,13.60006047,-5.600006521,1,0,0,0,112,112,25,1,,,,,,,,,,,,,,,,,,,,,
,,,,,,,,,,,,,,,,,,,,,,,,,,,,,,,,,,,,,,,,,,,5f7728d67080aa1f45a8b4fd,5ff3a3c79bca6f98934e0ba9,2021-01-05_00h26.33.983,Colour_Similarity_Experiment_v1,2020.1.2,Win32,60,5ff3a352adaa099f7659f8cc,,,,,,,,,,,,,,,,,,,,FF,,,,,,,,6,1.255755,,,,,,,,,,,,,,,,,,,,,,,,,,,,2,120.0000132,56.79999441,1,0,0,response1disk,8,114,-0.799988568,16.79999381,1,0,0,rectangle,-0.799988568,16.79999381,1,0,0,3,7,0,0.00876,-0.799988568,16.79999381,1,0,0,0,113,113,62,1,,,,,,,,,,,,,,,,,,,,,
,,,,,,,,,,,,,,,,,,,,,,,,,,,,,,,,,,,,,,,,,,,5f7728d67080aa1f45a8b4fd,5ff3a3c79bca6f98934e0ba9,2021-01-05_00h26.33.983,Colour_Similarity_Experiment_v1,2020.1.2,Win32,60,5ff3a352adaa099f7659f8cc,,,,,,,,,,,,,,,,,,,,PF,,,,,,,,7,1.069305,,,,,,,,,,,,,,,,,,,,,,,,,,,,9,50.4000122,75.9999947,1,0,0,response1disk,7,115,-18.39994,-0.800006449,1,0,0,rectangle,-18.39994,-0.800006449,1,0,0,3,7,0,0.000835,-18.39994,-0.800006449,1,0,0,0,114,114,121,1,,,,,,,,,,,,,,,,,,,,,
,,,,,,,,,,,,,,,,,,,,,,,,,,,,,,,,,,,,,,,,,,,5f7728d67080aa1f45a8b4fd,5ff3a3c79bca6f98934e0ba9,2021-01-05_00h26.33.983,Colour_Similarity_Experiment_v1,2020.1.2,Win32,60,5ff3a352adaa099f7659f8cc,,,,,,,,,,,,,,,,,,,,FF,,,,,,,,7,1.31379,,,,,,,,,,,,,,,,,,,,,,,,,,,,7,54.40001225,100.7999951,1,0,0,response1disk,9,116,8.000011563,-2.400006473,1,0,0,rectangle,8.000011563,-2.400006473,1,0,0,3,4,0,0.001885,8.000011563,-2.400006473,1,0,0,0,115,115,155,1,,,,,,,,,,,,,,,,,,,,,
,,,,,,,,,,,,,,,,,,,,,,,,,,,,,,,,,,,,,,,,,,,5f7728d67080aa1f45a8b4fd,5ff3a3c79bca6f98934e0ba9,2021-01-05_00h26.33.983,Colour_Similarity_Experiment_v1,2020.1.2,Win32,60,5ff3a352adaa099f7659f8cc,,,,,,,,,,,,,,,,,,,,FF,,,,,,,,7,1.228395,,,,,,,,,,,,,,,,,,,,,,,,,,,,2,45.60006095,104.7999951,1,0,0,response1disk,7,117,4.000011504,1.599993587,1,0,0,rectangle,4.000011504,1.599993587,1,0,0,3,1,0,0.001225,4.000011504,1.599993587,1,0,0,0,116,116,63,1,,,,,,,,,,,,,,,,,,,,,
,,,,,,,,,,,,,,,,,,,,,,,,,,,,,,,,,,,,,,,,,,,5f7728d67080aa1f45a8b4fd,5ff3a3c79bca6f98934e0ba9,2021-01-05_00h26.33.983,Colour_Similarity_Experiment_v1,2020.1.2,Win32,60,5ff3a352adaa099f7659f8cc,,,,,,,,,,,,,,,,,,,,FF,,,,,,,,6,0.91327,,,,,,,,,,,,,,,,,,,,,,,,,,,,6,66.40001243,43.19996979,1,0,0,response1disk,2,118,18.40001172,13.59999377,1,0,0,rectangle,18.40001172,13.59999377,1,0,0,3,6,0,0.001215,18.40001172,13.59999377,1,0,0,0,117,117,112,1,,,,,,,,,,,,,,,,,,,,,
,,,,,,,,,,,,,,,,,,,,,,,,,,,,,,,,,,,,,,,,,,,5f7728d67080aa1f45a8b4fd,5ff3a3c79bca6f98934e0ba9,2021-01-05_00h26.33.983,Colour_Similarity_Experiment_v1,2020.1.2,Win32,60,5ff3a352adaa099f7659f8cc,,,,,,,,,,,,,,,,,,,,PF,,,,,,,,3,1.883785,,,,,,,,,,,,,,,,,,,,,,,,,,,,6,-48.79998928,-64.8000074,1,0,0,response5disk,3,119,8.000011563,11.99999374,1,0,0,rectangle,8.000011563,11.99999374,1,0,0,3,7,0,0.00147,8.000011563,11.99999374,1,0,0,0,118,118,26,1,,,,,,,,,,,,,,,,,,,,,
,,,,,,,,,,,,,,,,,,,,,,,,,,,,,,,,,,,,,,,,,,,5f7728d67080aa1f45a8b4fd,5ff3a3c79bca6f98934e0ba9,2021-01-05_00h26.33.983,Colour_Similarity_Experiment_v1,2020.1.2,Win32,60,5ff3a352adaa099f7659f8cc,,,,,,,,,,,,,,,,,,,,FF,,,,,,,,6,2.23892,,,,,,,,,,,,,,,,,,,,,,,,,,,,1,78.40001261,39.99999416,1,0,0,response1disk,4,120,12.00001162,-6.4373E-06,1,0,0,rectangle,12.00001162,-6.4373E-06,1,0,0,3,7,0,0.00256,12.00001162,-6.4373E-06,1,0,0,0,119,119,135,1,,,,,,,,,,,,,,,,,,,,,
,,,,,,,,,,,,,,,,,,,,,,,,,,,,,,,,,,,,,,,,,,,5f7728d67080aa1f45a8b4fd,5ff3a3c79bca6f98934e0ba9,2021-01-05_00h26.33.983,Colour_Similarity_Experiment_v1,2020.1.2,Win32,60,5ff3a352adaa099f7659f8cc,,,,,,,,,,,,,,,,,,,,FF,,,,,,,,0,1.21977,,,,,,,,,,,,,,,,,,,,,,,,,,,,7,-35.99998909,105.5999951,1,0,0,response7disk,7,121,12.80001163,-9.60000658,1,0,0,rectangle,12.80001163,-9.60000658,1,0,0,3,3,0,0.00076,12.80001163,-9.60000658,1,0,0,0,120,120,34,1,,,,,,,,,,,,,,,,,,,,,
,,,,,,,,,,,,,,,,,,,,,,,,,,,,,,,,,,,,,,,,,,,5f7728d67080aa1f45a8b4fd,5ff3a3c79bca6f98934e0ba9,2021-01-05_00h26.33.983,Colour_Similarity_Experiment_v1,2020.1.2,Win32,60,5ff3a352adaa099f7659f8cc,,,,,,,,,,,,,,,,,,,,FF,,,,,,,,2,3.092365,,,,,,,,,,,,,,,,,,,,,,,,,,,,6,-77.59998971,-48.80000716,1,0,0,response5disk,8,122,6.400011539,3.19999361,1,0,0,rectangle,6.400011539,3.19999361,1,0,0,3,1,0,0.00116,6.400011539,3.19999361,1,0,0,0,121,121,133,1,,,,,,,,,,,,,,,,,,,,,
,,,,,,,,,,,,,,,,,,,,,,,,,,,,,,,,,,,,,,,,,,,5f7728d67080aa1f45a8b4fd,5ff3a3c79bca6f98934e0ba9,2021-01-05_00h26.33.983,Colour_Similarity_Experiment_v1,2020.1.2,Win32,60,5ff3a352adaa099f7659f8cc,,,,,,,,,,,,,,,,,,,,FF,,,,,,,,5,2.46713,,,,,,,,,,,,,,,,,,,,,,,,,,,,2,91.2000128,-26.40000683,1,0,0,response3disk,6,123,2.40001148,2.399993598,1,0,0,rectangle,2.40001148,2.399993598,1,0,0,3,7,0,0.00106,2.40001148,2.399993598,1,0,0,0,122,122,40,1,,,,,,,,,,,,,,,,,,,,,
,,,,,,,,,,,,,,,,,,,,,,,,,,,,,,,,,,,,,,,,,,,5f7728d67080aa1f45a8b4fd,5ff3a3c79bca6f98934e0ba9,2021-01-05_00h26.33.983,Colour_Similarity_Experiment_v1,2020.1.2,Win32,60,5ff3a352adaa099f7659f8cc,,,,,,,,,,,,,,,,,,,,FF,,,,,,,,6,1.440795,,,,,,,,,,,,,,,,,,,,,,,,,,,,3,84.0000127,59.99999446,1,0,0,response1disk,1,124,9.600060415,4.799993634,1,0,0,rectangle,9.600060415,4.799993634,1,0,0,3,7,0,0.001535,9.600060415,4.799993634,1,0,0,0,123,123,125,1,,,,,,,,,,,,,,,,,,,,,
,,,,,,,,,,,,,,,,,,,,,,,,,,,,,,,,,,,,,,,,,,,5f7728d67080aa1f45a8b4fd,5ff3a3c79bca6f98934e0ba9,2021-01-05_00h26.33.983,Colour_Similarity_Experiment_v1,2020.1.2,Win32,60,5ff3a352adaa099f7659f8cc,,,,,,,,,,,,,,,,,,,,PF,,,,,,,,6,1.467095,,,,,,,,,,,,,,,,,,,,,,,,,,,,2,65.60001242,57.59999442,1,0,0,response1disk,7,125,20.00001174,5.599993646,1,0,0,rectangle,20.00001174,5.599993646,1,0,0,3,4,0,0.00224,20.00001174,5.599993646,1,0,0,0,124,124,107,1,,,,,,,,,,,,,,,,,,,,,
,,,,,,,,,,,,,,,,,,,,,,,,,,,,,,,,,,,,,,,,,,,5f7728d67080aa1f45a8b4fd,5ff3a3c79bca6f98934e0ba9,2021-01-05_00h26.33.983,Colour_Similarity_Experiment_v1,2020.1.2,Win32,60,5ff3a352adaa099f7659f8cc,,,,,,,,,,,,,,,,,,,,PF,,,,,,,,3,1.963765,,,,,,,,,,,,,,,,,,,,,,,,,,,,9,-30.39994018,-76.80000758,1,0,0,response5disk,2,126,5.600060356,6.399993658,1,0,0,rectangle,5.600060356,6.399993658,1,0,0,3,6,0,0.001585,5.600060356,6.399993658,1,0,0,0,125,125,157,1,,,,,,,,,,,,,,,,,,,,,
,,,,,,,,,,,,,,,,,,,,,,,,,,,,,,,,,,,,,,,,,,,5f7728d67080aa1f45a8b4fd,5ff3a3c79bca6f98934e0ba9,2021-01-05_00h26.33.983,Colour_Similarity_Experiment_v1,2020.1.2,Win32,60,5ff3a352adaa099f7659f8cc,,,,,,,,,,,,,,,,,,,,FF,,,,,,,,3,3.097395,,,,,,,,,,,,,,,,,,,,,,,,,,,,5,-29.599989,-96.80000788,1,0,0,response5disk,7,127,-0.799988568,-12.80000663,1,0,0,rectangle,-0.799988568,-12.80000663,1,0,0,3,0,0,0.00153,-0.799988568,-12.80000663,1,0,0,0,126,126,7,1,,,,,,,,,,,,,,,,,,,,,
,,,,,,,,,,,,,,,,,,,,,,,,,,,,,,,,,,,,,,,,,,,5f7728d67080aa1f45a8b4fd,5ff3a3c79bca6f98934e0ba9,2021-01-05_00h26.33.983,Colour_Similarity_Experiment_v1,2020.1.2,Win32,60,5ff3a352adaa099f7659f8cc,,,,,,,,,,,,,,,,,,,,PF,,,,,,,,2,1.56908,,,,,,,,,,,,,,,,,,,,,,,,,,,,9,-83.99998981,-43.20000708,1,0,0,response5disk,8,128,1.600060296,12.79999375,1,0,0,rectangle,1.600060296,12.79999375,1,0,0,3,4,0,0.002355,1.600060296,12.79999375,1,0,0,0,127,127,67,1,,,,,,,,,,,,,,,,,,,,,
,,,,,,,,,,,,,,,,,,,,,,,,,,,,,,,,,,,,,,,,,,,5f7728d67080aa1f45a8b4fd,5ff3a3c79bca6f98934e0ba9,2021-01-05_00h26.33.983,Colour_Similarity_Experiment_v1,2020.1.2,Win32,60,5ff3a352adaa099f7659f8cc,,,,,,,,,,,,,,,,,,,,PF,,,,,,,,4,1.213225,,,,,,,,,,,,,,,,,,,,,,,,,,,,7,40.00001204,-79.20000762,1,0,0,response3disk,1,129,1.14441E-05,-6.4373E-06,1,0,0,rectangle,1.14441E-05,-6.4373E-06,1,0,0,3,0,0,0.00091,1.14441E-05,-6.4373E-06,1,0,0,0,128,128,53,1,,,,,,,,,,,,,,,,,,,,,
,,,,,,,,,,,,,,,,,,,,,,,,,,,,,,,,,,,,,,,,,,,5f7728d67080aa1f45a8b4fd,5ff3a3c79bca6f98934e0ba9,2021-01-05_00h26.33.983,Colour_Similarity_Experiment_v1,2020.1.2,Win32,60,5ff3a352adaa099f7659f8cc,,,,,,,,,,,,,,,,,,,,FF,,,,,,,,6,2.061685,,,,,,,,,,,,,,,,,,,,,,,,,,,,7,91.2000128,47.19996985,1,0,0,response1disk,4,130,22.40001178,12.79999375,1,0,0,rectangle,22.40001178,12.79999375,1,0,0,3,7,0,0.00074,22.40001178,12.79999375,1,0,0,0,129,129,158,1,,,,,,,,,,,,,,,,,,,,,
,,,,,,,,,,,,,,,,,,,,,,,,,,,,,,,,,,,,,,,,,,,5f7728d67080aa1f45a8b4fd,5ff3a3c79bca6f98934e0ba9,2021-01-05_00h26.33.983,Colour_Similarity_Experiment_v1,2020.1.2,Win32,60,5ff3a352adaa099f7659f8cc,,,,,,,,,,,,,,,,,,,,FF,,,,,,,,2,2.169215,,,,,,,,,,,,,,,,,,,,,,,,,,,,2,-71.19998962,-38.40000701,1,0,0,response5disk,1,131,-4.799988627,4.799993634,1,0,0,rectangle,-4.799988627,4.799993634,1,0,0,3,2,0,0.001235,-4.799988627,4.799993634,1,0,0,0,130,130,85,1,,,,,,,,,,,,,,,,,,,,,
,,,,,,,,,,,,,,,,,,,,,,,,,,,,,,,,,,,,,,,,,,,5f7728d67080aa1f45a8b4fd,5ff3a3c79bca6f98934e0ba9,2021-01-05_00h26.33.983,Colour_Similarity_Experiment_v1,2020.1.2,Win32,60,5ff3a352adaa099f7659f8cc,,,,,,,,,,,,,,,,,,,,PF,,,,,,,,2,2.64329,,,,,,,,,,,,,,,,,,,,,,,,,,,,2,-87.99998987,-49.60000718,1,0,0,response5disk,3,132,-3.999988616,4.799993634,1,0,0,rectangle,-3.999988616,4.799993634,1,0,0,3,7,0,0.001095,-3.999988616,4.799993634,1,0,0,0,131,131,69,1,,,,,,,,,,,,,,,,,,,,,
,,,,,,,,,,,,,,,,,,,,,,,,,,,,,,,,,,,,,,,,,,,5f7728d67080aa1f45a8b4fd,5ff3a3c79bca6f98934e0ba9,2021-01-05_00h26.33.983,Colour_Similarity_Experiment_v1,2020.1.2,Win32,60,5ff3a352adaa099f7659f8cc,,,,,,,,,,,,,,,,,,,,PF,,,,,,,,3,1.91343,,,,,,,,,,,,,,,,,,,,,,,,,,,,3,-66.39994072,-86.40000772,1,0,0,response5disk,6,133,-9.599988699,-10.40000659,1,0,0,rectangle,-9.599988699,-10.40000659,1,0,0,3,0,0,0.001605,-9.599988699,-10.40000659,1,0,0,0,132,132,47,1,,,,,,,,,,,,,,,,,,,,,
,,,,,,,,,,,,,,,,,,,,,,,,,,,,,,,,,,,,,,,,,,,5f7728d67080aa1f45a8b4fd,5ff3a3c79bca6f98934e0ba9,2021-01-05_00h26.33.983,Colour_Similarity_Experiment_v1,2020.1.2,Win32,60,5ff3a352adaa099f7659f8cc,,,,,,,,,,,,,,,,,,,,FF,,,,,,,,4,1.874355,,,,,,,,,,,,,,,,,,,,,,,,,,,,8,36.80001199,-74.40000755,1,0,0,response3disk,7,134,4.800011516,-0.800006449,1,0,0,rectangle,4.800011516,-0.800006449,1,0,0,3,4,0,0.00104,4.800011516,-0.800006449,1,0,0,0,133,133,86,1,,,,,,,,,,,,,,,,,,,,,
,,,,,,,,,,,,,,,,,,,,,,,,,,,,,,,,,,,,,,,,,,,5f7728d67080aa1f45a8b4fd,5ff3a3c79bca6f98934e0ba9,2021-01-05_00h26.33.983,Colour_Similarity_Experiment_v1,2020.1.2,Win32,60,5ff3a352adaa099f7659f8cc,,,,,,,,,,,,,,,,,,,,FF,,,,,,,,5,1.79656,,,,,,,,,,,,,,,,,,,,,,,,,,,,8,62.40001237,-38.40000701,1,0,0,response3disk,5,135,-0.799988568,1.599993587,1,0,0,rectangle,-0.799988568,1.599993587,1,0,0,3,4,0,0.00081,-0.799988568,1.599993587,1,0,0,0,134,134,152,1,,,,,,,,,,,,,,,,,,,,,
,,,,,,,,,,,,,,,,,,,,,,,,,,,,,,,,,,,,,,,,,,,5f7728d67080aa1f45a8b4fd,5ff3a3c79bca6f98934e0ba9,2021-01-05_00h26.33.983,Colour_Similarity_Experiment_v1,2020.1.2,Win32,60,5ff3a352adaa099f7659f8cc,,,,,,,,,,,,,,,,,,,,PF,,,,,,,,7,1.542055,,,,,,,,,,,,,,,,,,,,,,,,,,,,1,56.00001228,77.59999472,1,0,0,response1disk,7,136,14.40001166,6.399993658,1,0,0,rectangle,14.40001166,6.399993658,1,0,0,3,1,0,0.001875,14.40001166,6.399993658,1,0,0,0,135,135,150,1,,,,,,,,,,,,,,,,,,,,,
,,,,,,,,,,,,,,,,,,,,,,,,,,,,,,,,,,,,,,,,,,,5f7728d67080aa1f45a8b4fd,5ff3a3c79bca6f98934e0ba9,2021-01-05_00h26.33.983,Colour_Similarity_Experiment_v1,2020.1.2,Win32,60,5ff3a352adaa099f7659f8cc,,,,,,,,,,,,,,,,,,,,PF,,,,,,,,4,2.28937,,,,,,,,,,,,,,,,,,,,,,,,,,,,9,50.4000122,-60.00000733,1,0,0,response3disk,4,137,6.400011539,3.999993622,1,0,0,rectangle,6.400011539,3.999993622,1,0,0,3,0,0,0.001635,6.400011539,3.999993622,1,0,0,0,136,136,114,1,,,,,,,,,,,,,,,,,,,,,
,,,,,,,,,,,,,,,,,,,,,,,,,,,,,,,,,,,,,,,,,,,5f7728d67080aa1f45a8b4fd,5ff3a3c79bca6f98934e0ba9,2021-01-05_00h26.33.983,Colour_Similarity_Experiment_v1,2020.1.2,Win32,60,5ff3a352adaa099f7659f8cc,,,,,,,,,,,,,,,,,,,,FF,,,,,,,,2,2.378565,,,,,,,,,,,,,,,,,,,,,,,,,,,,6,-83.99998981,-47.20000714,1,0,0,response5disk,7,138,17.60006053,3.19999361,1,0,0,rectangle,17.60006053,3.19999361,1,0,0,3,5,0,0.00164,17.60006053,3.19999361,1,0,0,0,137,137,18,1,,,,,,,,,,,,,,,,,,,,,
,,,,,,,,,,,,,,,,,,,,,,,,,,,,,,,,,,,,,,,,,,,5f7728d67080aa1f45a8b4fd,5ff3a3c79bca6f98934e0ba9,2021-01-05_00h26.33.983,Colour_Similarity_Experiment_v1,2020.1.2,Win32,60,5ff3a352adaa099f7659f8cc,,,,,,,,,,,,,,,,,,,,PF,,,,,,,,2,1.58918,,,,,,,,,,,,,,,,,,,,,,,,,,,,6,-75.19998968,-45.60000712,1,0,0,response5disk,7,139,0.800011456,0.799993575,1,0,0,rectangle,0.800011456,0.799993575,1,0,0,3,4,0,0.002225,0.800011456,0.799993575,1,0,0,0,138,138,50,1,,,,,,,,,,,,,,,,,,,,,
,,,,,,,,,,,,,,,,,,,,,,,,,,,,,,,,,,,,,,,,,,,5f7728d67080aa1f45a8b4fd,5ff3a3c79bca6f98934e0ba9,2021-01-05_00h26.33.983,Colour_Similarity_Experiment_v1,2020.1.2,Win32,60,5ff3a352adaa099f7659f8cc,,,,,,,,,,,,,,,,,,,,FF,,,,,,,,0,1.504235,,,,,,,,,,,,,,,,,,,,,,,,,,,,2,-25.59998894,102.3999951,1,0,0,response7disk,2,140,-2.399939764,3.19999361,1,0,0,rectangle,-2.399939764,3.19999361,1,0,0,3,4,0,0.001565,-2.399939764,3.19999361,1,0,0,0,139,139,142,1,,,,,,,,,,,,,,,,,,,,,
,,,,,,,,,,,,,,,,,,,,,,,,,,,,,,,,,,,,,,,,,,,5f7728d67080aa1f45a8b4fd,5ff3a3c79bca6f98934e0ba9,2021-01-05_00h26.33.983,Colour_Similarity_Experiment_v1,2020.1.2,Win32,60,5ff3a352adaa099f7659f8cc,,,,,,,,,,,,,,,,,,,,PF,,,,,,,,1,1.579045,,,,,,,,,,,,,,,,,,,,,,,,,,,,5,-78.3999409,35.9999941,1,0,0,response7disk,3,141,-11.99998873,-6.400006533,1,0,0,rectangle,-11.99998873,-6.400006533,1,0,0,3,2,0,0.00138,-11.99998873,-6.400006533,1,0,0,0,140,140,109,1,,,,,,,,,,,,,,,,,,,,,
,,,,,,,,,,,,,,,,,,,,,,,,,,,,,,,,,,,,,,,,,,,5f7728d67080aa1f45a8b4fd,5ff3a3c79bca6f98934e0ba9,2021-01-05_00h26.33.983,Colour_Similarity_Experiment_v1,2020.1.2,Win32,60,5ff3a352adaa099f7659f8cc,,,,,,,,,,,,,,,,,,,,PF,,,,,,,,3,1.629265,,,,,,,,,,,,,,,,,,,,,,,,,,,,6,-31.19998902,-67.20000744,1,0,0,response5disk,8,142,-5.599988639,-14.40000665,1,0,0,rectangle,-5.599988639,-14.40000665,1,0,0,3,1,0,0.00102,-5.599988639,-14.40000665,1,0,0,0,141,141,64,1,,,,,,,,,,,,,,,,,,,,,
,,,,,,,,,,,,,,,,,,,,,,,,,,,,,,,,,,,,,,,,,,,5f7728d67080aa1f45a8b4fd,5ff3a3c79bca6f98934e0ba9,2021-01-05_00h26.33.983,Colour_Similarity_Experiment_v1,2020.1.2,Win32,60,5ff3a352adaa099f7659f8cc,,,,,,,,,,,,,,,,,,,,FF,,,,,,,,6,1.761045,,,,,,,,,,,,,,,,,,,,,,,,,,,,9,86.40001273,27.99999398,1,0,0,response1disk,3,143,-12.79998875,-7.200006545,1,0,0,rectangle,-12.79998875,-7.200006545,1,0,0,3,3,0,0.00078,-12.79998875,-7.200006545,1,0,0,0,142,142,141,1,,,,,,,,,,,,,,,,,,,,,
,,,,,,,,,,,,,,,,,,,,,,,,,,,,,,,,,,,,,,,,,,,5f7728d67080aa1f45a8b4fd,5ff3a3c79bca6f98934e0ba9,2021-01-05_00h26.33.983,Colour_Similarity_Experiment_v1,2020.1.2,Win32,60,5ff3a352adaa099f7659f8cc,,,,,,,,,,,,,,,,,,,,PF,,,,,,,,3,1.587945,,,,,,,,,,,,,,,,,,,,,,,,,,,,5,-27.99998897,-72.00000751,1,0,0,response5disk,7,144,-9.599988699,-16.00000668,1,0,0,rectangle,-9.599988699,-16.00000668,1,0,0,3,7,0,0.001025,-9.599988699,-16.00000668,1,0,0,0,143,143,146,1,,,,,,,,,,,,,,,,,,,,,
,,,,,,,,,,,,,,,,,,,,,,,,,,,,,,,,,,,,,,,,,,,5f7728d67080aa1f45a8b4fd,5ff3a3c79bca6f98934e0ba9,2021-01-05_00h26.33.983,Colour_Similarity_Experiment_v1,2020.1.2,Win32,60,5ff3a352adaa099f7659f8cc,,,,,,,,,,,,,,,,,,,,PF,,,,,,,,3,2.483045,,,,,,,,,,,,,,,,,,,,,,,,,,,,8,-23.99998891,-99.20000792,1,0,0,response5disk,5,145,2.40001148,-4.800006509,1,0,0,rectangle,2.40001148,-4.800006509,1,0,0,3,5,0,0.001585,2.40001148,-4.800006509,1,0,0,0,144,144,98,1,,,,,,,,,,,,,,,,,,,,,
,,,,,,,,,,,,,,,,,,,,,,,,,,,,,,,,,,,,,,,,,,,5f7728d67080aa1f45a8b4fd,5ff3a3c79bca6f98934e0ba9,2021-01-05_00h26.33.983,Colour_Similarity_Experiment_v1,2020.1.2,Win32,60,5ff3a352adaa099f7659f8cc,,,,,,,,,,,,,,,,,,,,FF,,,,,,,,5,1.509405,,,,,,,,,,,,,,,,,,,,,,,,,,,,6,68.80001247,-36.80000699,1,0,0,response3disk,1,146,-11.99998873,10.39999372,1,0,0,rectangle,-11.99998873,10.39999372,1,0,0,3,5,0,0.00123,-11.99998873,10.39999372,1,0,0,0,145,145,5,1,,,,,,,,,,,,,,,,,,,,,
,,,,,,,,,,,,,,,,,,,,,,,,,,,,,,,,,,,,,,,,,,,5f7728d67080aa1f45a8b4fd,5ff3a3c79bca6f98934e0ba9,2021-01-05_00h26.33.983,Colour_Similarity_Experiment_v1,2020.1.2,Win32,60,5ff3a352adaa099f7659f8cc,,,,,,,,,,,,,,,,,,,,PF,,,,,,,,0,1.45932,,,,,,,,,,,,,,,,,,,,,,,,,,,,3,-43.1999892,100.7999951,1,0,0,response7disk,3,147,-2.399939764,-2.400006473,1,0,0,rectangle,-2.399939764,-2.400006473,1,0,0,3,2,0,0.00124,-2.399939764,-2.400006473,1,0,0,0,146,146,4,1,,,,,,,,,,,,,,,,,,,,,
,,,,,,,,,,,,,,,,,,,,,,,,,,,,,,,,,,,,,,,,,,,5f7728d67080aa1f45a8b4fd,5ff3a3c79bca6f98934e0ba9,2021-01-05_00h26.33.983,Colour_Similarity_Experiment_v1,2020.1.2,Win32,60,5ff3a352adaa099f7659f8cc,,,,,,,,,,,,,,,,,,,,PF,,,,,,,,5,3.62024,,,,,,,,,,,,,,,,,,,,,,,,,,,,4,72.00001252,-23.20000678,1,0,0,response3disk,7,148,10.4000116,3.19999361,1,0,0,rectangle,10.4000116,3.19999361,1,0,0,3,7,0,0.00131,10.4000116,3.19999361,1,0,0,0,147,147,38,1,,,,,,,,,,,,,,,,,,,,,
,,,,,,,,,,,,,,,,,,,,,,,,,,,,,,,,,,,,,,,,,,,5f7728d67080aa1f45a8b4fd,5ff3a3c79bca6f98934e0ba9,2021-01-05_00h26.33.983,Colour_Similarity_Experiment_v1,2020.1.2,Win32,60,5ff3a352adaa099f7659f8cc,,,,,,,,,,,,,,,,,,,,FF,,,,,,,,5,1.54397,,,,,,,,,,,,,,,,,,,,,,,,,,,,4,87.20001274,-32.80000693,1,0,0,response3disk,7,149,5.600060356,5.599993646,1,0,0,rectangle,5.600060356,5.599993646,1,0,0,3,4,0,0.00527,5.600060356,5.599993646,1,0,0,0,148,148,87,1,,,,,,,,,,,,,,,,,,,,,
,,,,,,,,,,,,,,,,,,,,,,,,,,,,,,,,,,,,,,,,,,,5f7728d67080aa1f45a8b4fd,5ff3a3c79bca6f98934e0ba9,2021-01-05_00h26.33.983,Colour_Similarity_Experiment_v1,2020.1.2,Win32,60,5ff3a352adaa099f7659f8cc,,,,,,,,,,,,,,,,,,,,FF,,,,,,,,6,1.096485,,,,,,,,,,,,,,,,,,,,,,,,,,,,1,67.20001245,39.19996973,1,0,0,response1disk,7,150,7.200011551,7.19999367,1,0,0,rectangle,7.200011551,7.19999367,1,0,0,3,4,0,0.00198,7.200011551,7.19999367,1,0,0,0,149,149,137,1,,,,,,,,,,,,,,,,,,,,,
,,,,,,,,,,,,,,,,,,,,,,,,,,,,,,,,,,,,,,,,,,,5f7728d67080aa1f45a8b4fd,5ff3a3c79bca6f98934e0ba9,2021-01-05_00h26.33.983,Colour_Similarity_Experiment_v1,2020.1.2,Win32,60,5ff3a352adaa099f7659f8cc,,,,,,,,,,,,,,,,,,,,PF,,,,,,,,0,1.920095,,,,,,,,,,,,,,,,,,,,,,,,,,,,7,-27.99998897,111.9999952,1,0,0,response7disk,7,151,8.800011575,-11.2000066,1,0,0,rectangle,8.800011575,-11.2000066,1,0,0,3,3,0,0.001325,8.800011575,-11.2000066,1,0,0,0,150,150,51,1,,,,,,,,,,,,,,,,,,,,,
,,,,,,,,,,,,,,,,,,,,,,,,,,,,,,,,,,,,,,,,,,,5f7728d67080aa1f45a8b4fd,5ff3a3c79bca6f98934e0ba9,2021-01-05_00h26.33.983,Colour_Similarity_Experiment_v1,2020.1.2,Win32,60,5ff3a352adaa099f7659f8cc,,,,,,,,,,,,,,,,,,,,FF,,,,,,,,2,1.4494,,,,,,,,,,,,,,,,,,,,,,,,,,,,6,-86.39994102,-43.20000708,1,0,0,response5disk,5,152,-20.79998887,-8.000006557,1,0,0,rectangle,-20.79998887,-8.000006557,1,0,0,3,5,0,0.001695,-20.79998887,-8.000006557,1,0,0,0,151,151,126,1,,,,,,,,,,,,,,,,,,,,,
,,,,,,,,,,,,,,,,,,,,,,,,,,,,,,,,,,,,,,,,,,,5f7728d67080aa1f45a8b4fd,5ff3a3c79bca6f98934e0ba9,2021-01-05_00h26.33.983,Colour_Similarity_Experiment_v1,2020.1.2,Win32,60,5ff3a352adaa099f7659f8cc,,,,,,,,,,,,,,,,,,,,FF,,,,,,,,3,1.82487,,,,,,,,,,,,,,,,,,,,,,,,,,,,5,-46.39994042,-75.20000756,1,0,0,response5disk,8,153,-2.399939764,-4.800006509,1,0,0,rectangle,-2.399939764,-4.800006509,1,0,0,3,0,0,0.00106,-2.399939764,-4.800006509,1,0,0,0,152,152,16,1,,,,,,,,,,,,,,,,,,,,,
,,,,,,,,,,,,,,,,,,,,,,,,,,,,,,,,,,,,,,,,,,,5f7728d67080aa1f45a8b4fd,5ff3a3c79bca6f98934e0ba9,2021-01-05_00h26.33.983,Colour_Similarity_Experiment_v1,2020.1.2,Win32,60,5ff3a352adaa099f7659f8cc,,,,,,,,,,,,,,,,,,,,PF,,,,,,,,1,1.754065,,,,,,,,,,,,,,,,,,,,,,,,,,,,3,-67.19998956,33.59999406,1,0,0,response7disk,4,154,-1.59998858,-4.800006509,1,0,0,rectangle,-1.59998858,-4.800006509,1,0,0,3,1,0,0.000885,-1.59998858,-4.800006509,1,0,0,0,153,153,30,1,,,,,,,,,,,,,,,,,,,,,
,,,,,,,,,,,,,,,,,,,,,,,,,,,,,,,,,,,,,,,,,,,5f7728d67080aa1f45a8b4fd,5ff3a3c79bca6f98934e0ba9,2021-01-05_00h26.33.983,Colour_Similarity_Experiment_v1,2020.1.2,Win32,60,5ff3a352adaa099f7659f8cc,,,,,,,,,,,,,,,,,,,,FF,,,,,,,,3,1.97472,,,,,,,,,,,,,,,,,,,,,,,,,,,,5,-43.99998921,-99.20000792,1,0,0,response5disk,2,155,4.800011516,-8.800006568,1,0,0,rectangle,100.0000129,43.19996979,1,0,0,6,6,1,1.91029,-7.999988675,4.799993634,1,0,0,0,154,154,55,1,response1disk_3,rectangle,,,,,,,,,,,,,,,,,,,
,,,,,,,,,,,,,,,,,,,,,,,,,,,,,,,,,,,,,,,,,,,5f7728d67080aa1f45a8b4fd,5ff3a3c79bca6f98934e0ba9,2021-01-05_00h26.33.983,Colour_Similarity_Experiment_v1,2020.1.2,Win32,60,5ff3a352adaa099f7659f8cc,,,,,,,,,,,,,,,,,,,,FF,,,,,,,,0,1.25658,,,,,,,,,,,,,,,,,,,,,,,,,,,,8,-45.59998924,86.39999485,1,0,0,response7disk,8,156,-22.39994006,1.599993587,1,0,0,rectangle,-22.39994006,1.599993587,1,0,0,6,3,0,0.001355,-22.39994006,1.599993587,1,0,0,0,155,155,48,1,,,,,,,,,,,,,,,,,,,,,
,,,,,,,,,,,,,,,,,,,,,,,,,,,,,,,,,,,,,,,,,,,5f7728d67080aa1f45a8b4fd,5ff3a3c79bca6f98934e0ba9,2021-01-05_00h26.33.983,Colour_Similarity_Experiment_v1,2020.1.2,Win32,60,5ff3a352adaa099f7659f8cc,,,,,,,,,,,,,,,,,,,,PF,,,,,,,,3,1.58962,,,,,,,,,,,,,,,,,,,,,,,,,,,,6,-48.79998928,-73.60000753,1,0,0,response5disk,2,157,5.600060356,-12.80000663,1,0,0,rectangle,5.600060356,-12.80000663,1,0,0,6,1,0,0.001065,5.600060356,-12.80000663,1,0,0,0,156,156,130,1,,,,,,,,,,,,,,,,,,,,,
,,,,,,,,,,,,,,,,,,,,,,,,,,,,,,,,,,,,,,,,,,,5f7728d67080aa1f45a8b4fd,5ff3a3c79bca6f98934e0ba9,2021-01-05_00h26.33.983,Colour_Similarity_Experiment_v1,2020.1.2,Win32,60,5ff3a352adaa099f7659f8cc,,,,,,,,,,,,,,,,,,,,PF,,,,,,,,1,1.47363,,,,,,,,,,,,,,,,,,,,,,,,,,,,7,-75.19998968,39.19996973,1,0,0,response7disk,6,158,-6.399939823,-15.20000666,1,0,0,rectangle,-6.399939823,-15.20000666,1,0,0,6,3,0,0.00098,-6.399939823,-15.20000666,1,0,0,0,157,157,29,1,,,,,,,,,,,,,,,,,,,,,
,,,,,,,,,,,,,,,,,,,,,,,,,,,,,,,,,,,,,,,,,,,5f7728d67080aa1f45a8b4fd,5ff3a3c79bca6f98934e0ba9,2021-01-05_00h26.33.983,Colour_Similarity_Experiment_v1,2020.1.2,Win32,60,5ff3a352adaa099f7659f8cc,,,,,,,,,,,,,,,,,,,,PF,,,,,,,,6,1.81445,,,,,,,,,,,,,,,,,,,,,,,,,,,,1,87.20001274,59.19997003,1,0,0,response1disk,4,159,14.40001166,-16.80000669,1,0,0,rectangle,14.40001166,-16.80000669,1,0,0,6,6,0,0.00115,14.40001166,-16.80000669,1,0,0,0,158,158,139,1,,,,,,,,,,,,,,,,,,,,,
,,,,,,,,,,,,,,,,,,,,,,,,,,,,,,,,,,,,,,,,,,,5f7728d67080aa1f45a8b4fd,5ff3a3c79bca6f98934e0ba9,2021-01-05_00h26.33.983,Colour_Similarity_Experiment_v1,2020.1.2,Win32,60,5ff3a352adaa099f7659f8cc,,,,,,,,,,,,,,,,,,,,FF,,,,,,,,0,1.545595,,,,,,,,,,,,,,,,,,,,,,,,,,,,3,-44.79998922,112.7999952,1,0,0,response7disk,3,160,5.600060356,1.599993587,1,0,0,rectangle,5.600060356,1.599993587,1,0,0,6,4,0,0.00107,5.600060356,1.599993587,1,0,0,0,159,159,68,1,,,,,,,,,,,,,,,,,,,,,
,,,,,,,,,,,,,,,,,,,,,,,,,,,,,,,,,,,,,,,,,,,5f7728d67080aa1f45a8b4fd,5ff3a3c79bca6f98934e0ba9,2021-01-05_00h26.33.983,Colour_Similarity_Experiment_v1,2020.1.2,Win32,60,5ff3a352adaa099f7659f8cc,,,,,,,,,,,,,,,,,,,,PF,,,,,,,,1,1.311815,,,,,,,,,,,,,,,,,,,,,,,,,,,,3,-91.19998991,23.99999392,1,0,0,response7disk,5,161,-6.399939823,0.799993575,1,0,0,rectangle,-6.399939823,0.799993575,1,0,0,6,3,0,0.00136,-6.399939823,0.799993575,1,0,0,0,160,160,66,1,,,,,,,,,,,,,,,,,,,,,
,,,,,,,,,,,,,,,,,,,,,,,,,,,,,,,,,,,,,,,,,,,5f7728d67080aa1f45a8b4fd,5ff3a3c79bca6f98934e0ba9,2021-01-05_00h26.33.983,Colour_Similarity_Experiment_v1,2020.1.2,Win32,60,5ff3a352adaa099f7659f8cc,,,,,,,,,,,,,,,,,,,,PF,,,,,,,,6,5.9077,,,,,,,,,,,,,,,,,,,,,,,,,,,,2,79.20001262,43.19996979,1,0,0,response1disk,6,162,5.600060356,-1.600006461,1,0,0,rectangle,5.600060356,-1.600006461,1,0,0,6,7,0,0.001,5.600060356,-1.600006461,1,0,0,0,161,161,113,1,,,,,,,,,,,,,,,,,,,,,
,,,,,,,,,,,,,,,,,,,,,,,,,,,,,,,,,,,,,,,,,,,5f7728d67080aa1f45a8b4fd,5ff3a3c79bca6f98934e0ba9,2021-01-05_00h26.33.983,Colour_Similarity_Experiment_v1,2020.1.2,Win32,60,5ff3a352adaa099f7659f8cc,,,,,,,,,,,,,,,,,,,,,,,,,,,,,,,,,,,,,,,,,,,,,,,,,,,,,,,,,,,,,,,,,,,,,,,,,,,,,,,,,,,,,,,,,,,,,0,0,0,0,1,,,,,,,,,,,,,,
,,,,,,,,,,,,,,,,,,,,,,,,,,,,,,,,,,,,,,,,,,,5f7728d67080aa1f45a8b4fd,5ff3a3c79bca6f98934e0ba9,2021-01-05_00h26.33.983,Colour_Similarity_Experiment_v1,2020.1.2,Win32,60,5ff3a352adaa099f7659f8cc,,,,,,,,,,,,,,,,,,,,FF,,,,,,,,6,2.771225,,,,,,,,,,,,,,,,,,,,,,,,,,,,2,94.40001285,56.79999441,1,0,0,response1disk,7,163,12.80001163,3.999993622,1,0,0,rectangle,12.80001163,3.999993622,1,0,0,6,4,0,0.00619,12.80001163,3.999993622,1,0,0,0,0,0,63,1,,,,,,,,,,,,,,,,,,,,,
,,,,,,,,,,,,,,,,,,,,,,,,,,,,,,,,,,,,,,,,,,,5f7728d67080aa1f45a8b4fd,5ff3a3c79bca6f98934e0ba9,2021-01-05_00h26.33.983,Colour_Similarity_Experiment_v1,2020.1.2,Win32,60,5ff3a352adaa099f7659f8cc,,,,,,,,,,,,,,,,,,,,PF,,,,,,,,2,2.0514,,,,,,,,,,,,,,,,,,,,,,,,,,,,1,-87.99998987,-32.80000693,1,0,0,response5disk,8,164,5.600060356,-6.4373E-06,1,0,0,rectangle,5.600060356,-6.4373E-06,1,0,0,6,7,0,0.001685,5.600060356,-6.4373E-06,1,0,0,0,1,1,65,1,,,,,,,,,,,,,,,,,,,,,
,,,,,,,,,,,,,,,,,,,,,,,,,,,,,,,,,,,,,,,,,,,5f7728d67080aa1f45a8b4fd,5ff3a3c79bca6f98934e0ba9,2021-01-05_00h26.33.983,Colour_Similarity_Experiment_v1,2020.1.2,Win32,60,5ff3a352adaa099f7659f8cc,,,,,,,,,,,,,,,,,,,,PF,,,,,,,,3,1.50791,,,,,,,,,,,,,,,,,,,,,,,,,,,,6,-43.1999892,-76.00000757,1,0,0,response5disk,9,165,12.00001162,13.59999377,1,0,0,rectangle,12.00001162,13.59999377,1,0,0,6,7,0,0.001185,12.00001162,13.59999377,1,0,0,0,2,2,45,1,,,,,,,,,,,,,,,,,,,,,
,,,,,,,,,,,,,,,,,,,,,,,,,,,,,,,,,,,,,,,,,,,5f7728d67080aa1f45a8b4fd,5ff3a3c79bca6f98934e0ba9,2021-01-05_00h26.33.983,Colour_Similarity_Experiment_v1,2020.1.2,Win32,60,5ff3a352adaa099f7659f8cc,,,,,,,,,,,,,,,,,,,,PF,,,,,,,,2,1.768215,,,,,,,,,,,,,,,,,,,,,,,,,,,,1,-87.99998987,-26.40000683,1,0,0,response5disk,2,166,-31.99998903,-6.400006533,1,0,0,rectangle,-31.99998903,-6.400006533,1,0,0,6,3,0,0.00129,-31.99998903,-6.400006533,1,0,0,0,3,3,24,1,,,,,,,,,,,,,,,,,,,,,
,,,,,,,,,,,,,,,,,,,,,,,,,,,,,,,,,,,,,,,,,,,5f7728d67080aa1f45a8b4fd,5ff3a3c79bca6f98934e0ba9,2021-01-05_00h26.33.983,Colour_Similarity_Experiment_v1,2020.1.2,Win32,60,5ff3a352adaa099f7659f8cc,,,,,,,,,,,,,,,,,,,,PF,,,,,,,,5,1.687,,,,,,,,,,,,,,,,,,,,,,,,,,,,9,74.40001255,-31.2000069,1,0,0,response3disk,5,167,0.800011456,-4.800006509,1,0,0,rectangle,0.800011456,-4.800006509,1,0,0,6,2,0,0.00133,0.800011456,-4.800006509,1,0,0,0,4,4,134,1,,,,,,,,,,,,,,,,,,,,,
,,,,,,,,,,,,,,,,,,,,,,,,,,,,,,,,,,,,,,,,,,,5f7728d67080aa1f45a8b4fd,5ff3a3c79bca6f98934e0ba9,2021-01-05_00h26.33.983,Colour_Similarity_Experiment_v1,2020.1.2,Win32,60,5ff3a352adaa099f7659f8cc,,,,,,,,,,,,,,,,,,,,FF,,,,,,,,6,1.20139,,,,,,,,,,,,,,,,,,,,,,,,,,,,4,123.2000133,52.79999435,1,0,0,response1disk,1,168,12.80001163,3.999993622,1,0,0,rectangle,12.80001163,3.999993622,1,0,0,6,3,0,0.00133,12.80001163,3.999993622,1,0,0,0,5,5,102,1,,,,,,,,,,,,,,,,,,,,,
,,,,,,,,,,,,,,,,,,,,,,,,,,,,,,,,,,,,,,,,,,,5f7728d67080aa1f45a8b4fd,5ff3a3c79bca6f98934e0ba9,2021-01-05_00h26.33.983,Colour_Similarity_Experiment_v1,2020.1.2,Win32,60,5ff3a352adaa099f7659f8cc,,,,,,,,,,,,,,,,,,,,FF,,,,,,,,4,2.146715,,,,,,,,,,,,,,,,,,,,,,,,,,,,4,19.20001173,-80.80000764,1,0,0,response3disk,9,169,-15.99998879,-1.600006461,1,0,0,rectangle,-15.99998879,-1.600006461,1,0,0,6,0,0,0.00161,-15.99998879,-1.600006461,1,0,0,0,6,6,90,1,,,,,,,,,,,,,,,,,,,,,
,,,,,,,,,,,,,,,,,,,,,,,,,,,,,,,,,,,,,,,,,,,5f7728d67080aa1f45a8b4fd,5ff3a3c79bca6f98934e0ba9,2021-01-05_00h26.33.983,Colour_Similarity_Experiment_v1,2020.1.2,Win32,60,5ff3a352adaa099f7659f8cc,,,,,,,,,,,,,,,,,,,,FF,,,,,,,,6,1.62586,,,,,,,,,,,,,,,,,,,,,,,,,,,,1,92.00001281,43.99999422,1,0,0,response1disk,5,170,-3.999988616,-7.200006545,1,0,0,rectangle,-3.999988616,-7.200006545,1,0,0,6,6,0,0.00266,-3.999988616,-7.200006545,1,0,0,0,7,7,82,1,,,,,,,,,,,,,,,,,,,,,
,,,,,,,,,,,,,,,,,,,,,,,,,,,,,,,,,,,,,,,,,,,5f7728d67080aa1f45a8b4fd,5ff3a3c79bca6f98934e0ba9,2021-01-05_00h26.33.983,Colour_Similarity_Experiment_v1,2020.1.2,Win32,60,5ff3a352adaa099f7659f8cc,,,,,,,,,,,,,,,,,,,,FF,,,,,,,,4,2.88013,,,,,,,,,,,,,,,,,,,,,,,,,,,,3,27.20001185,-93.60005666,1,0,0,response3disk,6,171,-11.99998873,-1.600006461,1,0,0,rectangle,-11.99998873,-1.600006461,1,0,0,6,1,0,0.00115,-11.99998873,-1.600006461,1,0,0,0,8,8,95,1,,,,,,,,,,,,,,,,,,,,,
,,,,,,,,,,,,,,,,,,,,,,,,,,,,,,,,,,,,,,,,,,,5f7728d67080aa1f45a8b4fd,5ff3a3c79bca6f98934e0ba9,2021-01-05_00h26.33.983,Colour_Similarity_Experiment_v1,2020.1.2,Win32,60,5ff3a352adaa099f7659f8cc,,,,,,,,,,,,,,,,,,,,FF,,,,,,,,6,1.467075,,,,,,,,,,,,,,,,,,,,,,,,,,,,6,75.20001256,45.59999424,1,0,0,response1disk,4,172,24.0000118,9.599993706,1,0,0,rectangle,24.0000118,9.599993706,1,0,0,6,5,0,0.00157,24.0000118,9.599993706,1,0,0,0,9,9,56,1,,,,,,,,,,,,,,,,,,,,,
,,,,,,,,,,,,,,,,,,,,,,,,,,,,,,,,,,,,,,,,,,,5f7728d67080aa1f45a8b4fd,5ff3a3c79bca6f98934e0ba9,2021-01-05_00h26.33.983,Colour_Similarity_Experiment_v1,2020.1.2,Win32,60,5ff3a352adaa099f7659f8cc,,,,,,,,,,,,,,,,,,,,PF,,,,,,,,4,4.854245,,,,,,,,,,,,,,,,,,,,,,,,,,,,3,49.60006101,-73.60000753,1,0,0,response3disk,2,173,22.40001178,-15.20000666,1,0,0,rectangle,-45.59998924,-116.0000082,1,0,0,3,3,1,2.181665,-3.999988616,9.599993706,1,0,0,0,10,10,36,1,response5disk_3,rectangle,,,,,,,,,,,,,,,,,,,
,,,,,,,,,,,,,,,,,,,,,,,,,,,,,,,,,,,,,,,,,,,5f7728d67080aa1f45a8b4fd,5ff3a3c79bca6f98934e0ba9,2021-01-05_00h26.33.983,Colour_Similarity_Experiment_v1,2020.1.2,Win32,60,5ff3a352adaa099f7659f8cc,,,,,,,,,,,,,,,,,,,,PF,,,,,,,,4,1.87617,,,,,,,,,,,,,,,,,,,,,,,,,,,,4,56.80001229,-80.00000763,1,0,0,response3disk,2,174,3.200011492,-4.800006509,1,0,0,rectangle,3.200011492,-4.800006509,1,0,0,3,1,0,0.001405,3.200011492,-4.800006509,1,0,0,0,11,11,108,1,,,,,,,,,,,,,,,,,,,,,
,,,,,,,,,,,,,,,,,,,,,,,,,,,,,,,,,,,,,,,,,,,5f7728d67080aa1f45a8b4fd,5ff3a3c79bca6f98934e0ba9,2021-01-05_00h26.33.983,Colour_Similarity_Experiment_v1,2020.1.2,Win32,60,5ff3a352adaa099f7659f8cc,,,,,,,,,,,,,,,,,,,,PF,,,,,,,,2,1.619365,,,,,,,,,,,,,,,,,,,,,,,,,,,,1,-74.39994084,-44.00000709,1,0,0,response5disk,9,175,-14.39993994,-10.40000659,1,0,0,rectangle,-14.39993994,-10.40000659,1,0,0,3,4,0,0.001285,-14.39993994,-10.40000659,1,0,0,0,12,12,15,1,,,,,,,,,,,,,,,,,,,,,
,,,,,,,,,,,,,,,,,,,,,,,,,,,,,,,,,,,,,,,,,,,5f7728d67080aa1f45a8b4fd,5ff3a3c79bca6f98934e0ba9,2021-01-05_00h26.33.983,Colour_Similarity_Experiment_v1,2020.1.2,Win32,60,5ff3a352adaa099f7659f8cc,,,,,,,,,,,,,,,,,,,,FF,,,,,,,,5,1.518525,,,,,,,,,,,,,,,,,,,,,,,,,,,,4,81.60001266,-24.00000679,1,0,0,response3disk,7,176,-0.799988568,11.99999374,1,0,0,rectangle,-0.799988568,11.99999374,1,0,0,3,3,0,0.00182,-0.799988568,11.99999374,1,0,0,0,13,13,87,1,,,,,,,,,,,,,,,,,,,,,
,,,,,,,,,,,,,,,,,,,,,,,,,,,,,,,,,,,,,,,,,,,5f7728d67080aa1f45a8b4fd,5ff3a3c79bca6f98934e0ba9,2021-01-05_00h26.33.983,Colour_Similarity_Experiment_v1,2020.1.2,Win32,60,5ff3a352adaa099f7659f8cc,,,,,,,,,,,,,,,,,,,,PF,,,,,,,,3,2.77505,,,,,,,,,,,,,,,,,,,,,,,,,,,,8,-46.39994042,-78.40000761,1,0,0,response5disk,7,177,-1.59998858,-10.40000659,1,0,0,rectangle,-1.59998858,-10.40000659,1,0,0,3,2,0,0.00089,-1.59998858,-10.40000659,1,0,0,0,14,14,23,1,,,,,,,,,,,,,,,,,,,,,
,,,,,,,,,,,,,,,,,,,,,,,,,,,,,,,,,,,,,,,,,,,5f7728d67080aa1f45a8b4fd,5ff3a3c79bca6f98934e0ba9,2021-01-05_00h26.33.983,Colour_Similarity_Experiment_v1,2020.1.2,Win32,60,5ff3a352adaa099f7659f8cc,,,,,,,,,,,,,,,,,,,,PF,,,,,,,,3,1.93384,,,,,,,,,,,,,,,,,,,,,,,,,,,,6,-45.59998924,-73.60000753,1,0,0,response5disk,3,178,-0.799988568,-6.400006533,1,0,0,rectangle,-0.799988568,-6.400006533,1,0,0,3,6,0,0.00103,-0.799988568,-6.400006533,1,0,0,0,15,15,26,1,,,,,,,,,,,,,,,,,,,,,
,,,,,,,,,,,,,,,,,,,,,,,,,,,,,,,,,,,,,,,,,,,5f7728d67080aa1f45a8b4fd,5ff3a3c79bca6f98934e0ba9,2021-01-05_00h26.33.983,Colour_Similarity_Experiment_v1,2020.1.2,Win32,60,5ff3a352adaa099f7659f8cc,,,,,,,,,,,,,,,,,,,,PF,,,,,,,,0,1.988675,,,,,,,,,,,,,,,,,,,,,,,,,,,,5,-55.19998938,77.59999472,1,0,0,response7disk,4,179,-26.39994012,-11.2000066,1,0,0,rectangle,-26.39994012,-11.2000066,1,0,0,3,3,0,0.00087,-26.39994012,-11.2000066,1,0,0,0,16,16,54,1,,,,,,,,,,,,,,,,,,,,,
,,,,,,,,,,,,,,,,,,,,,,,,,,,,,,,,,,,,,,,,,,,5f7728d67080aa1f45a8b4fd,5ff3a3c79bca6f98934e0ba9,2021-01-05_00h26.33.983,Colour_Similarity_Experiment_v1,2020.1.2,Win32,60,5ff3a352adaa099f7659f8cc,,,,,,,,,,,,,,,,,,,,PF,,,,,,,,1,1.511795,,,,,,,,,,,,,,,,,,,,,,,,,,,,9,-52.79998934,38.39999413,1,0,0,response7disk,1,180,-8.799988687,-10.40000659,1,0,0,rectangle,-8.799988687,-10.40000659,1,0,0,3,3,0,0.001255,-8.799988687,-10.40000659,1,0,0,0,17,17,74,1,,,,,,,,,,,,,,,,,,,,,
,,,,,,,,,,,,,,,,,,,,,,,,,,,,,,,,,,,,,,,,,,,5f7728d67080aa1f45a8b4fd,5ff3a3c79bca6f98934e0ba9,2021-01-05_00h26.33.983,Colour_Similarity_Experiment_v1,2020.1.2,Win32,60,5ff3a352adaa099f7659f8cc,,,,,,,,,,,,,,,,,,,,FF,,,,,,,,1,1.581185,,,,,,,,,,,,,,,,,,,,,,,,,,,,5,-47.19998926,36.79999411,1,0,0,response7disk,4,181,0.800011456,-2.400006473,1,0,0,rectangle,0.800011456,-2.400006473,1,0,0,3,0,0,0.00289,0.800011456,-2.400006473,1,0,0,0,18,18,8,1,,,,,,,,,,,,,,,,,,,,,
,,,,,,,,,,,,,,,,,,,,,,,,,,,,,,,,,,,,,,,,,,,5f7728d67080aa1f45a8b4fd,5ff3a3c79bca6f98934e0ba9,2021-01-05_00h26.33.983,Colour_Similarity_Experiment_v1,2020.1.2,Win32,60,5ff3a352adaa099f7659f8cc,,,,,,,,,,,,,,,,,,,,FF,,,,,,,,3,1.935115,,,,,,,,,,,,,,,,,,,,,,,,,,,,8,-25.59998894,-52.80000722,1,0,0,response5disk,7,182,28.00001186,6.399993658,1,0,0,rectangle,28.00001186,6.399993658,1,0,0,3,5,0,0.001525,28.00001186,6.399993658,1,0,0,0,19,19,86,1,,,,,,,,,,,,,,,,,,,,,
,,,,,,,,,,,,,,,,,,,,,,,,,,,,,,,,,,,,,,,,,,,5f7728d67080aa1f45a8b4fd,5ff3a3c79bca6f98934e0ba9,2021-01-05_00h26.33.983,Colour_Similarity_Experiment_v1,2020.1.2,Win32,60,5ff3a352adaa099f7659f8cc,,,,,,,,,,,,,,,,,,,,PF,,,,,,,,0,1.444765,,,,,,,,,,,,,,,,,,,,,,,,,,,,8,-36.7999891,103.9999951,1,0,0,response7disk,8,183,-16.79998881,3.19999361,1,0,0,rectangle,-16.79998881,3.19999361,1,0,0,3,4,0,0.001265,-16.79998881,3.19999361,1,0,0,0,20,20,153,1,,,,,,,,,,,,,,,,,,,,,
,,,,,,,,,,,,,,,,,,,,,,,,,,,,,,,,,,,,,,,,,,,5f7728d67080aa1f45a8b4fd,5ff3a3c79bca6f98934e0ba9,2021-01-05_00h26.33.983,Colour_Similarity_Experiment_v1,2020.1.2,Win32,60,5ff3a352adaa099f7659f8cc,,,,,,,,,,,,,,,,,,,,PF,,,,,,,,0,1.43884,,,,,,,,,,,,,,,,,,,,,,,,,,,,1,-39.99998915,51.99999434,1,0,0,response7disk,1,184,4.800011516,-7.200006545,1,0,0,rectangle,-76.7999897,54.39999437,1,0,0,1,1,1,2.06938,-21.59998888,12.79999375,1,0,0,0,21,21,76,1,response7disk_3,rectangle,,,,,,,,,,,,,,,,,,,
,,,,,,,,,,,,,,,,,,,,,,,,,,,,,,,,,,,,,,,,,,,5f7728d67080aa1f45a8b4fd,5ff3a3c79bca6f98934e0ba9,2021-01-05_00h26.33.983,Colour_Similarity_Experiment_v1,2020.1.2,Win32,60,5ff3a352adaa099f7659f8cc,,,,,,,,,,,,,,,,,,,,PF,,,,,,,,4,1.68913,,,,,,,,,,,,,,,,,,,,,,,,,,,,4,44.0000121,-60.80000734,1,0,0,response3disk,8,185,3.200011492,0.799993575,1,0,0,rectangle,3.200011492,0.799993575,1,0,0,1,2,0,0.001,3.200011492,0.799993575,1,0,0,0,22,22,124,1,,,,,,,,,,,,,,,,,,,,,
,,,,,,,,,,,,,,,,,,,,,,,,,,,,,,,,,,,,,,,,,,,5f7728d67080aa1f45a8b4fd,5ff3a3c79bca6f98934e0ba9,2021-01-05_00h26.33.983,Colour_Similarity_Experiment_v1,2020.1.2,Win32,60,5ff3a352adaa099f7659f8cc,,,,,,,,,,,,,,,,,,,,PF,,,,,,,,3,1.85408,,,,,,,,,,,,,,,,,,,,,,,,,,,,9,-32.79998904,-84.00000769,1,0,0,response5disk,6,186,3.200011492,-1.600006461,1,0,0,rectangle,3.200011492,-1.600006461,1,0,0,1,5,0,0.00141,3.200011492,-1.600006461,1,0,0,0,23,23,148,1,,,,,,,,,,,,,,,,,,,,,
,,,,,,,,,,,,,,,,,,,,,,,,,,,,,,,,,,,,,,,,,,,5f7728d67080aa1f45a8b4fd,5ff3a3c79bca6f98934e0ba9,2021-01-05_00h26.33.983,Colour_Similarity_Experiment_v1,2020.1.2,Win32,60,5ff3a352adaa099f7659f8cc,,,,,,,,,,,,,,,,,,,,FF,,,,,,,,5,1.604805,,,,,,,,,,,,,,,,,,,,,,,,,,,,1,100.8000129,-58.40000731,1,0,0,response3disk,4,187,-3.999988616,-5.600006521,1,0,0,rectangle,-3.999988616,-5.600006521,1,0,0,1,6,0,0.00126,-3.999988616,-5.600006521,1,0,0,0,24,24,135,1,,,,,,,,,,,,,,,,,,,,,
,,,,,,,,,,,,,,,,,,,,,,,,,,,,,,,,,,,,,,,,,,,5f7728d67080aa1f45a8b4fd,5ff3a3c79bca6f98934e0ba9,2021-01-05_00h26.33.983,Colour_Similarity_Experiment_v1,2020.1.2,Win32,60,5ff3a352adaa099f7659f8cc,,,,,,,,,,,,,,,,,,,,FF,,,,,,,,4,1.877035,,,,,,,,,,,,,,,,,,,,,,,,,,,,8,38.40001202,-75.20000756,1,0,0,response3disk,3,188,-4.799988627,2.399993598,1,0,0,rectangle,-4.799988627,2.399993598,1,0,0,1,1,0,0.00103,-4.799988627,2.399993598,1,0,0,0,25,25,154,1,,,,,,,,,,,,,,,,,,,,,
,,,,,,,,,,,,,,,,,,,,,,,,,,,,,,,,,,,,,,,,,,,5f7728d67080aa1f45a8b4fd,5ff3a3c79bca6f98934e0ba9,2021-01-05_00h26.33.983,Colour_Similarity_Experiment_v1,2020.1.2,Win32,60,5ff3a352adaa099f7659f8cc,,,,,,,,,,,,,,,,,,,,PF,,,,,,,,4,1.16168,,,,,,,,,,,,,,,,,,,,,,,,,,,,8,35.20001197,-80.00000763,1,0,0,response3disk,3,189,-6.399939823,-1.600006461,1,0,0,rectangle,-6.399939823,-1.600006461,1,0,0,1,3,0,0.00084,-6.399939823,-1.600006461,1,0,0,0,26,26,71,1,,,,,,,,,,,,,,,,,,,,,
,,,,,,,,,,,,,,,,,,,,,,,,,,,,,,,,,,,,,,,,,,,5f7728d67080aa1f45a8b4fd,5ff3a3c79bca6f98934e0ba9,2021-01-05_00h26.33.983,Colour_Similarity_Experiment_v1,2020.1.2,Win32,60,5ff3a352adaa099f7659f8cc,,,,,,,,,,,,,,,,,,,,PF,,,,,,,,3,1.76594,,,,,,,,,,,,,,,,,,,,,,,,,,,,9,-31.19998902,-78.40000761,1,0,0,response5disk,2,190,-5.599988639,15.9999938,1,0,0,rectangle,-5.599988639,15.9999938,1,0,0,1,1,0,0.00131,-5.599988639,15.9999938,1,0,0,0,27,27,157,1,,,,,,,,,,,,,,,,,,,,,
,,,,,,,,,,,,,,,,,,,,,,,,,,,,,,,,,,,,,,,,,,,5f7728d67080aa1f45a8b4fd,5ff3a3c79bca6f98934e0ba9,2021-01-05_00h26.33.983,Colour_Similarity_Experiment_v1,2020.1.2,Win32,60,5ff3a352adaa099f7659f8cc,,,,,,,,,,,,,,,,,,,,FF,,,,,,,,6,1.51436,,,,,,,,,,,,,,,,,,,,,,,,,,,,7,89.60001278,54.39999437,1,0,0,response1disk,2,191,12.80001163,6.399993658,1,0,0,rectangle,12.80001163,6.399993658,1,0,0,1,7,0,0.001225,12.80001163,6.399993658,1,0,0,0,28,28,138,1,,,,,,,,,,,,,,,,,,,,,
,,,,,,,,,,,,,,,,,,,,,,,,,,,,,,,,,,,,,,,,,,,5f7728d67080aa1f45a8b4fd,5ff3a3c79bca6f98934e0ba9,2021-01-05_00h26.33.983,Colour_Similarity_Experiment_v1,2020.1.2,Win32,60,5ff3a352adaa099f7659f8cc,,,,,,,,,,,,,,,,,,,,FF,,,,,,,,5,1.49418,,,,,,,,,,,,,,,,,,,,,,,,,,,,5,61.60001236,-28.00000685,1,0,0,response3disk,1,192,-4.799988627,2.399993598,1,0,0,rectangle,-4.799988627,2.399993598,1,0,0,1,2,0,0.00133,-4.799988627,2.399993598,1,0,0,0,29,29,131,1,,,,,,,,,,,,,,,,,,,,,
,,,,,,,,,,,,,,,,,,,,,,,,,,,,,,,,,,,,,,,,,,,5f7728d67080aa1f45a8b4fd,5ff3a3c79bca6f98934e0ba9,2021-01-05_00h26.33.983,Colour_Similarity_Experiment_v1,2020.1.2,Win32,60,5ff3a352adaa099f7659f8cc,,,,,,,,,,,,,,,,,,,,PF,,,,,,,,6,2.07019,,,,,,,,,,,,,,,,,,,,,,,,,,,,2,69.60001248,25.59999394,1,0,0,response1disk,6,193,16.00001168,-6.400006533,1,0,0,rectangle,16.00001168,-6.400006533,1,0,0,1,4,0,0.001185,16.00001168,-6.400006533,1,0,0,0,30,30,113,1,,,,,,,,,,,,,,,,,,,,,
,,,,,,,,,,,,,,,,,,,,,,,,,,,,,,,,,,,,,,,,,,,5f7728d67080aa1f45a8b4fd,5ff3a3c79bca6f98934e0ba9,2021-01-05_00h26.33.983,Colour_Similarity_Experiment_v1,2020.1.2,Win32,60,5ff3a352adaa099f7659f8cc,,,,,,,,,,,,,,,,,,,,PF,,,,,,,,5,1.561125,,,,,,,,,,,,,,,,,,,,,,,,,,,,7,75.20001256,-38.40000701,1,0,0,response3disk,9,194,0.800011456,-3.200006485,1,0,0,rectangle,0.800011456,-3.200006485,1,0,0,1,5,0,0.00161,0.800011456,-3.200006485,1,0,0,0,31,31,10,1,,,,,,,,,,,,,,,,,,,,,
,,,,,,,,,,,,,,,,,,,,,,,,,,,,,,,,,,,,,,,,,,,5f7728d67080aa1f45a8b4fd,5ff3a3c79bca6f98934e0ba9,2021-01-05_00h26.33.983,Colour_Similarity_Experiment_v1,2020.1.2,Win32,60,5ff3a352adaa099f7659f8cc,,,,,,,,,,,,,,,,,,,,PF,,,,,,,,3,1.75936,,,,,,,,,,,,,,,,,,,,,,,,,,,,2,-46.39994042,-87.20000774,1,0,0,response5disk,1,195,-4.799988627,4.799993634,1,0,0,rectangle,-4.799988627,4.799993634,1,0,0,1,5,0,0.00183,-4.799988627,4.799993634,1,0,0,0,32,32,9,1,,,,,,,,,,,,,,,,,,,,,
,,,,,,,,,,,,,,,,,,,,,,,,,,,,,,,,,,,,,,,,,,,5f7728d67080aa1f45a8b4fd,5ff3a3c79bca6f98934e0ba9,2021-01-05_00h26.33.983,Colour_Similarity_Experiment_v1,2020.1.2,Win32,60,5ff3a352adaa099f7659f8cc,,,,,,,,,,,,,,,,,,,,PF,,,,,,,,5,2.739385,,,,,,,,,,,,,,,,,,,,,,,,,,,,2,87.20001274,-42.40000707,1,0,0,response3disk,8,196,3.200011492,6.399993658,1,0,0,rectangle,3.200011492,6.399993658,1,0,0,1,2,0,0.001945,3.200011492,6.399993658,1,0,0,0,33,33,52,1,,,,,,,,,,,,,,,,,,,,,
,,,,,,,,,,,,,,,,,,,,,,,,,,,,,,,,,,,,,,,,,,,5f7728d67080aa1f45a8b4fd,5ff3a3c79bca6f98934e0ba9,2021-01-05_00h26.33.983,Colour_Similarity_Experiment_v1,2020.1.2,Win32,60,5ff3a352adaa099f7659f8cc,,,,,,,,,,,,,,,,,,,,FF,,,,,,,,4,2.125815,,,,,,,,,,,,,,,,,,,,,,,,,,,,7,47.20001215,-93.60005666,1,0,0,response3disk,8,197,-4.799988627,-6.4373E-06,1,0,0,rectangle,-93.59998995,-36.80000699,1,0,0,1,2,1,2.099955,-7.999988675,12.79999375,1,0,0,0,34,34,97,1,response5disk_3,rectangle,,,,,,,,,,,,,,,,,,,
,,,,,,,,,,,,,,,,,,,,,,,,,,,,,,,,,,,,,,,,,,,5f7728d67080aa1f45a8b4fd,5ff3a3c79bca6f98934e0ba9,2021-01-05_00h26.33.983,Colour_Similarity_Experiment_v1,2020.1.2,Win32,60,5ff3a352adaa099f7659f8cc,,,,,,,,,,,,,,,,,,,,PF,,,,,,,,4,2.251225,,,,,,,,,,,,,,,,,,,,,,,,,,,,4,55.20001227,-70.40000749,1,0,0,response3disk,6,198,-6.399939823,7.999993682,1,0,0,rectangle,-6.399939823,7.999993682,1,0,0,1,2,0,0.00128,-6.399939823,7.999993682,1,0,0,0,35,35,120,1,,,,,,,,,,,,,,,,,,,,,
