key_resp.keys,key_resp.rt,key_resp_16.keys,key_resp_16.rt,key_resp_2.keys,key_resp_2.rt,X Scale,ratio_pxpermm,screen_size_x,screen_size_y,testsize,key_resp_3.keys,key_resp_3.rt,key_resp_4.keys,key_resp_4.rt,line_size,key_resp_5.keys,key_resp_5.rt,key_resp_6.keys,key_resp_6.rt,key_resp_8.keys,key_resp_8.rt,key_resp_7.keys,key_resp_7.rt,key_resp_12.keys,key_resp_12.rt,key_resp_11.keys,key_resp_11.rt,key_resp_18.keys,key_resp_18.rt,key_resp_21.keys,key_resp_21.rt,key_resp_13.keys,key_resp_13.rt,key_resp_19.keys,key_resp_19.rt,ballposx,viewer_distance,trials.thisRepN,trials.thisTrialN,trials.thisN,trials.thisIndex,trials.ran,participant,session,date,expName,psychopyVersion,OS,frameRate,study_id,viewerdistancecm,DVA_to_distance,radius_F,radius_P,r_F,R_P,key_resp_20.keys,key_resp_20.rt,key_resp_14.keys,key_resp_14.rt,key_resp_15.keys,key_resp_15.rt,key_resp_17.keys,key_resp_17.rt,key_resp_9.keys,key_resp_9.rt,key_resp_10.keys,key_resp_10.rt,Colour_1,Ecc,mouse_5.x,mouse_5.y,mouse_5.leftButton,mouse_5.midButton,mouse_5.rightButton,mouse_5.clicked_name,Colour_2,similarity,response_time,mouse_10.x,mouse_10.y,mouse_10.leftButton,mouse_10.midButton,mouse_10.rightButton,mouse_10.clicked_name,mouse_7.x,mouse_7.y,mouse_7.leftButton,mouse_7.midButton,mouse_7.rightButton,catchnumberprac,mouse_6.x,mouse_6.y,mouse_6.leftButton,mouse_6.midButton,mouse_6.rightButton,duringprac.thisRepN,duringprac.thisTrialN,duringprac.thisN,duringprac.thisIndex,duringprac.ran,mouse_7.clicked_name,catchprac,mouse_6.clicked_name,key_resp_22.keys,key_resp_22.rt,Colour1,mouse.x,mouse.y,mouse.leftButton,mouse.midButton,mouse.rightButton,mouse.clicked_name,Colour2,trialnumber,mouse_2.x,mouse_2.y,mouse_2.leftButton,mouse_2.midButton,mouse_2.rightButton,mouse_2.clicked_name,mouse_3.x,mouse_3.y,mouse_3.leftButton,mouse_3.midButton,mouse_3.rightButton,catchresponse,catchnumber,Catch,response_time_catch,mouse_11.x,mouse_11.y,mouse_11.leftButton,mouse_11.midButton,mouse_11.rightButton,trials_2.thisRepN,trials_2.thisTrialN,trials_2.thisN,trials_2.thisIndex,trials_2.ran,mouse_3.clicked_name,mouse_11.clicked_name,trials_3.thisRepN,trials_3.thisTrialN,trials_3.thisN,trials_3.thisIndex,trials_3.ran,answer1,rt1,answer2,rt2,answer3,rt3,answer4,rt4,answer5,rt5,answer6,rt6,answer7,rt7
space,26.43093,space,26.561945,space,10.040195,40.4,4.04,475.2475248,267.3267327,1920,space,22.14191,space,20.5515,80.8,space,23.710235,space,10.954585,space,2.395305,space,7.052525,space,8.549475,space,10.9211,space,26.3194,space,22.160245,space,28.36493,return,3.2674,152.64,634.4454995,0,0,0,0,1,5f7b2ce6b2c8250797d6b54d,5ff3ba19cfa0552381150a9a,2021-01-05_03h00.37.353,Colour_Similarity_Experiment_v1,2020.1.2,Win32,60,5ff3a352adaa099f7659f8cc,,,,,,,,,,,,,,,,,,,,,,,,,,,,,,,,,,,,,,,,,,,,,,,,,,,,,,,,,,,,,,,,,,,,,,,,,,,,,,,,,,,,,,,,,,,,,,,,,,,,,,,,,,,,,,,
,,,,,,,,,,,,,,,,,,,,,,,,,,,,,,,,,,return,3.150565,172.8,613.6602335,1,0,1,0,1,5f7b2ce6b2c8250797d6b54d,5ff3ba19cfa0552381150a9a,2021-01-05_03h00.37.353,Colour_Similarity_Experiment_v1,2020.1.2,Win32,60,5ff3a352adaa099f7659f8cc,,,,,,,,,,,,,,,,,,,,,,,,,,,,,,,,,,,,,,,,,,,,,,,,,,,,,,,,,,,,,,,,,,,,,,,,,,,,,,,,,,,,,,,,,,,,,,,,,,,,,,,,,,,,,,,
,,,,,,,,,,,,,,,,,,,,,,,,,,,,,,,,,,return,3.0507,190.08,595.8442912,2,0,2,0,1,5f7b2ce6b2c8250797d6b54d,5ff3ba19cfa0552381150a9a,2021-01-05_03h00.37.353,Colour_Similarity_Experiment_v1,2020.1.2,Win32,60,5ff3a352adaa099f7659f8cc,,,,,,,,,,,,,,,,,,,,,,,,,,,,,,,,,,,,,,,,,,,,,,,,,,,,,,,,,,,,,,,,,,,,,,,,,,,,,,,,,,,,,,,,,,,,,,,,,,,,,,,,,,,,,,,
,,,,,,,,,,,,,,,,,,,,,,,,,,,,,,,,,,return,3.083875,184.32,601.7829386,3,0,3,0,1,5f7b2ce6b2c8250797d6b54d,5ff3ba19cfa0552381150a9a,2021-01-05_03h00.37.353,Colour_Similarity_Experiment_v1,2020.1.2,Win32,60,5ff3a352adaa099f7659f8cc,,,,,,,,,,,,,,,,,,,,,,,,,,,,,,,,,,,,,,,,,,,,,,,,,,,,,,,,,,,,,,,,,,,,,,,,,,,,,,,,,,,,,,,,,,,,,,,,,,,,,,,,,,,,,,,
,,,,,,,,,,,,,,,,,,,,,,,,,,,,,,,,,,return,3.217175,161.28,625.5375283,4,0,4,0,1,5f7b2ce6b2c8250797d6b54d,5ff3ba19cfa0552381150a9a,2021-01-05_03h00.37.353,Colour_Similarity_Experiment_v1,2020.1.2,Win32,60,5ff3a352adaa099f7659f8cc,,,,,,,,,,,,,,,,,,,,,,,,,,,,,,,,,,,,,,,,,,,,,,,,,,,,,,,,,,,,,,,,,,,,,,,,,,,,,,,,,,,,,,,,,,,,,,,,,,,,,,,,,,,,,,,
,,,,,,,,,,,,,,,,,,,,,,,,,,,,,,,,,,,,,,,,,,,5f7b2ce6b2c8250797d6b54d,5ff3ba19cfa0552381150a9a,2021-01-05_03h00.37.353,Colour_Similarity_Experiment_v1,2020.1.2,Win32,60,5ff3a352adaa099f7659f8cc,61,10.6475858,64.52436994,430.1624662,43.01624662,193.5731098,space,5.03464,space,17.756905,space,33.5124,space,8.40471,space,7.384345,space,7.19135,9,PF,45,132,1,0,0,response1disk_5,9,7,3.478255,6,-11,1,0,0,rectangle_8,6,-11,1,0,0,4,6,-11,1,0,0,0,0,0,6,1,,,,,,,,,,,,,,,,,,,,,,,,,,,,,,,,,,,,,,,,,,,,,,,,,,,,,,,,,,,,
,,,,,,,,,,,,,,,,,,,,,,,,,,,,,,,,,,,,,,,,,,,5f7b2ce6b2c8250797d6b54d,5ff3ba19cfa0552381150a9a,2021-01-05_03h00.37.353,Colour_Similarity_Experiment_v1,2020.1.2,Win32,60,5ff3a352adaa099f7659f8cc,,,,,,,,,,,,,,,,,,,3,PF,57,126,1,0,0,response1disk_5,6,7,3.68475,-5,2,1,0,0,rectangle_8,-5,2,1,0,0,4,-5,2,1,0,0,0,1,1,4,1,,,,,,,,,,,,,,,,,,,,,,,,,,,,,,,,,,,,,,,,,,,,,,,,,,,,,,,,,,,,
,,,,,,,,,,,,,,,,,,,,,,,,,,,,,,,,,,,,,,,,,,,5f7b2ce6b2c8250797d6b54d,5ff3ba19cfa0552381150a9a,2021-01-05_03h00.37.353,Colour_Similarity_Experiment_v1,2020.1.2,Win32,60,5ff3a352adaa099f7659f8cc,,,,,,,,,,,,,,,,,,,9,FF,125,45,1,0,0,response1disk_5,1,6,15.02745,-6,-1,1,0,0,rectangle_8,-6,-1,1,0,0,4,-6,-1,1,0,0,0,2,2,0,1,,,,,,,,,,,,,,,,,,,,,,,,,,,,,,,,,,,,,,,,,,,,,,,,,,,,,,,,,,,,
,,,,,,,,,,,,,,,,,,,,,,,,,,,,,,,,,,,,,,,,,,,5f7b2ce6b2c8250797d6b54d,5ff3ba19cfa0552381150a9a,2021-01-05_03h00.37.353,Colour_Similarity_Experiment_v1,2020.1.2,Win32,60,5ff3a352adaa099f7659f8cc,,,,,,,,,,,,,,,,,,,8,FF,66,-112,1,0,0,response3disk_5,5,4,11.069975,-6,4,1,0,0,rectangle_8,74,-149,1,0,0,4,-6,-1,1,0,0,0,3,3,5,1,response3disk_7,4,rectangle_4,,,,,,,,,,,,,,,,,,,,,,,,,,,,,,,,,,,,,,,,,,,,,,,,,,,,,,,,,
,,,,,,,,,,,,,,,,,,,,,,,,,,,,,,,,,,,,,,,,,,,5f7b2ce6b2c8250797d6b54d,5ff3ba19cfa0552381150a9a,2021-01-05_03h00.37.353,Colour_Similarity_Experiment_v1,2020.1.2,Win32,60,5ff3a352adaa099f7659f8cc,,,,,,,,,,,,,,,,,,,9,PF,-117,60,1,0,0,response7disk_5,8,1,2.94239,7,5,1,0,0,rectangle_8,7,5,1,0,0,4,7,5,1,0,0,0,4,4,1,1,,,,,,,,,,,,,,,,,,,,,,,,,,,,,,,,,,,,,,,,,,,,,,,,,,,,,,,,,,,,
,,,,,,,,,,,,,,,,,,,,,,,,,,,,,,,,,,,,,,,,,,,5f7b2ce6b2c8250797d6b54d,5ff3ba19cfa0552381150a9a,2021-01-05_03h00.37.353,Colour_Similarity_Experiment_v1,2020.1.2,Win32,60,5ff3a352adaa099f7659f8cc,,,,,,,,,,,,,,,,,,,3,PF,125,49,1,0,0,response1disk_5,7,6,8.05657,-13,6,1,0,0,rectangle_8,57,-118,1,0,0,4,7,1,1,0,0,0,5,5,2,1,response3disk_7,4,rectangle_4,,,,,,,,,,,,,,,,,,,,,,,,,,,,,,,,,,,,,,,,,,,,,,,,,,,,,,,,,
,,,,,,,,,,,,,,,,,,,,,,,,,,,,,,,,,,,,,,,,,,,5f7b2ce6b2c8250797d6b54d,5ff3ba19cfa0552381150a9a,2021-01-05_03h00.37.353,Colour_Similarity_Experiment_v1,2020.1.2,Win32,60,5ff3a352adaa099f7659f8cc,,,,,,,,,,,,,,,,,,,6,FF,-46,150,1,0,0,response7disk_5,6,0,3.50034,0,2,1,0,0,rectangle_8,0,2,1,0,0,4,0,2,1,0,0,0,6,6,3,1,,,,,,,,,,,,,,,,,,,,,,,,,,,,,,,,,,,,,,,,,,,,,,,,,,,,,,,,,,,,
,,,,,,,,,,,,,,,,,,,,,,,,,,,,,,,,,,,,,,,,,,,5f7b2ce6b2c8250797d6b54d,5ff3ba19cfa0552381150a9a,2021-01-05_03h00.37.353,Colour_Similarity_Experiment_v1,2020.1.2,Win32,60,5ff3a352adaa099f7659f8cc,,,,,,,,,,,,,,,,,,,,FF,,,,,,,,7,4.96366,,,,,,,,,,,,,,,,,,,,,,,,,,space,4.94299,3,70,118,1,0,0,response1disk,8,1,-3,2,1,0,0,rectangle,-3,2,1,0,0,,1,0,0.00099,-3,2,1,0,0,0,0,0,44,1,,,,,,,,,,,,,,,,,,,,,
,,,,,,,,,,,,,,,,,,,,,,,,,,,,,,,,,,,,,,,,,,,5f7b2ce6b2c8250797d6b54d,5ff3ba19cfa0552381150a9a,2021-01-05_03h00.37.353,Colour_Similarity_Experiment_v1,2020.1.2,Win32,60,5ff3a352adaa099f7659f8cc,,,,,,,,,,,,,,,,,,,,FF,,,,,,,,6,3.61291,,,,,,,,,,,,,,,,,,,,,,,,,,,,9,93,37,1,0,0,response1disk,6,2,-17,-5,1,0,0,rectangle,-17,-5,1,0,0,,5,0,0.00064,-17,-5,1,0,0,0,1,1,117,1,,,,,,,,,,,,,,,,,,,,,
,,,,,,,,,,,,,,,,,,,,,,,,,,,,,,,,,,,,,,,,,,,5f7b2ce6b2c8250797d6b54d,5ff3ba19cfa0552381150a9a,2021-01-05_03h00.37.353,Colour_Similarity_Experiment_v1,2020.1.2,Win32,60,5ff3a352adaa099f7659f8cc,,,,,,,,,,,,,,,,,,,,PF,,,,,,,,6,4.232195,,,,,,,,,,,,,,,,,,,,,,,,,,,,6,108,57,1,0,0,response1disk,2,3,10,10,1,0,0,rectangle,10,10,1,0,0,,2,0,0.00062,10,10,1,0,0,0,2,2,130,1,,,,,,,,,,,,,,,,,,,,,
,,,,,,,,,,,,,,,,,,,,,,,,,,,,,,,,,,,,,,,,,,,5f7b2ce6b2c8250797d6b54d,5ff3ba19cfa0552381150a9a,2021-01-05_03h00.37.353,Colour_Similarity_Experiment_v1,2020.1.2,Win32,60,5ff3a352adaa099f7659f8cc,,,,,,,,,,,,,,,,,,,,FF,,,,,,,,3,4.96024,,,,,,,,,,,,,,,,,,,,,,,,,,,,7,-46,-127,1,0,0,response5disk,8,4,-8,2,1,0,0,rectangle,-48,116,1,0,0,0,0,1,3.095005,-3,4,1,0,0,0,3,3,97,1,response7disk_3,rectangle,,,,,,,,,,,,,,,,,,,
,,,,,,,,,,,,,,,,,,,,,,,,,,,,,,,,,,,,,,,,,,,5f7b2ce6b2c8250797d6b54d,5ff3ba19cfa0552381150a9a,2021-01-05_03h00.37.353,Colour_Similarity_Experiment_v1,2020.1.2,Win32,60,5ff3a352adaa099f7659f8cc,,,,,,,,,,,,,,,,,,,,FF,,,,,,,,5,8.647865,,,,,,,,,,,,,,,,,,,,,,,,,,,,7,123,-51,1,0,0,response3disk,1,5,-12,1,1,0,0,rectangle,-12,1,1,0,0,0,6,0,0.00067,-12,1,1,0,0,0,4,4,132,1,,,,,,,,,,,,,,,,,,,,,
,,,,,,,,,,,,,,,,,,,,,,,,,,,,,,,,,,,,,,,,,,,5f7b2ce6b2c8250797d6b54d,5ff3ba19cfa0552381150a9a,2021-01-05_03h00.37.353,Colour_Similarity_Experiment_v1,2020.1.2,Win32,60,5ff3a352adaa099f7659f8cc,,,,,,,,,,,,,,,,,,,,FF,,,,,,,,1,4.320475,,,,,,,,,,,,,,,,,,,,,,,,,,,,5,-124,55,1,0,0,response7disk,3,6,-2,1,1,0,0,rectangle,-2,1,1,0,0,0,7,0,0.00073,-2,1,1,0,0,0,5,5,25,1,,,,,,,,,,,,,,,,,,,,,
,,,,,,,,,,,,,,,,,,,,,,,,,,,,,,,,,,,,,,,,,,,5f7b2ce6b2c8250797d6b54d,5ff3ba19cfa0552381150a9a,2021-01-05_03h00.37.353,Colour_Similarity_Experiment_v1,2020.1.2,Win32,60,5ff3a352adaa099f7659f8cc,,,,,,,,,,,,,,,,,,,,FF,,,,,,,,3,6.619955,,,,,,,,,,,,,,,,,,,,,,,,,,,,8,-59,-135,1,0,0,response5disk,7,7,-2,0,1,0,0,rectangle,-2,0,1,0,0,0,5,0,0.000645,-2,0,1,0,0,0,6,6,86,1,,,,,,,,,,,,,,,,,,,,,
,,,,,,,,,,,,,,,,,,,,,,,,,,,,,,,,,,,,,,,,,,,5f7b2ce6b2c8250797d6b54d,5ff3ba19cfa0552381150a9a,2021-01-05_03h00.37.353,Colour_Similarity_Experiment_v1,2020.1.2,Win32,60,5ff3a352adaa099f7659f8cc,,,,,,,,,,,,,,,,,,,,FF,,,,,,,,2,4.47033,,,,,,,,,,,,,,,,,,,,,,,,,,,,2,-119,-53,1,0,0,response5disk,9,8,5,15,1,0,0,rectangle,5,15,1,0,0,0,0,0,0.000715,5,15,1,0,0,0,7,7,72,1,,,,,,,,,,,,,,,,,,,,,
,,,,,,,,,,,,,,,,,,,,,,,,,,,,,,,,,,,,,,,,,,,5f7b2ce6b2c8250797d6b54d,5ff3ba19cfa0552381150a9a,2021-01-05_03h00.37.353,Colour_Similarity_Experiment_v1,2020.1.2,Win32,60,5ff3a352adaa099f7659f8cc,,,,,,,,,,,,,,,,,,,,FF,,,,,,,,2,9.09681,,,,,,,,,,,,,,,,,,,,,,,,,,,,8,-130,-25,1,0,0,response5disk,6,9,-3,6,1,0,0,rectangle,-3,6,1,0,0,0,1,0,0.000625,-3,6,1,0,0,0,8,8,37,1,,,,,,,,,,,,,,,,,,,,,
,,,,,,,,,,,,,,,,,,,,,,,,,,,,,,,,,,,,,,,,,,,5f7b2ce6b2c8250797d6b54d,5ff3ba19cfa0552381150a9a,2021-01-05_03h00.37.353,Colour_Similarity_Experiment_v1,2020.1.2,Win32,60,5ff3a352adaa099f7659f8cc,,,,,,,,,,,,,,,,,,,,FF,,,,,,,,0,1.601765,,,,,,,,,,,,,,,,,,,,,,,,,,,,7,-55,135,1,0,0,response7disk,7,10,-8,19,1,0,0,rectangle,-8,19,1,0,0,0,2,0,0.000595,-8,19,1,0,0,0,9,9,34,1,,,,,,,,,,,,,,,,,,,,,
,,,,,,,,,,,,,,,,,,,,,,,,,,,,,,,,,,,,,,,,,,,5f7b2ce6b2c8250797d6b54d,5ff3ba19cfa0552381150a9a,2021-01-05_03h00.37.353,Colour_Similarity_Experiment_v1,2020.1.2,Win32,60,5ff3a352adaa099f7659f8cc,,,,,,,,,,,,,,,,,,,,FF,,,,,,,,0,1.018235,,,,,,,,,,,,,,,,,,,,,,,,,,,,8,-48,140,1,0,0,response7disk,8,11,-11,-9,1,0,0,rectangle,-11,-9,1,0,0,0,0,0,0.00073,-11,-9,1,0,0,0,10,10,48,1,,,,,,,,,,,,,,,,,,,,,
,,,,,,,,,,,,,,,,,,,,,,,,,,,,,,,,,,,,,,,,,,,5f7b2ce6b2c8250797d6b54d,5ff3ba19cfa0552381150a9a,2021-01-05_03h00.37.353,Colour_Similarity_Experiment_v1,2020.1.2,Win32,60,5ff3a352adaa099f7659f8cc,,,,,,,,,,,,,,,,,,,,FF,,,,,,,,4,3.689505,,,,,,,,,,,,,,,,,,,,,,,,,,,,1,55,-135,1,0,0,response3disk,8,12,-1,-3,1,0,0,rectangle,-1,-3,1,0,0,0,6,0,0.000715,-1,-3,1,0,0,0,11,11,27,1,,,,,,,,,,,,,,,,,,,,,
,,,,,,,,,,,,,,,,,,,,,,,,,,,,,,,,,,,,,,,,,,,5f7b2ce6b2c8250797d6b54d,5ff3ba19cfa0552381150a9a,2021-01-05_03h00.37.353,Colour_Similarity_Experiment_v1,2020.1.2,Win32,60,5ff3a352adaa099f7659f8cc,,,,,,,,,,,,,,,,,,,,FF,,,,,,,,6,2.0174,,,,,,,,,,,,,,,,,,,,,,,,,,,,2,134,48,1,0,0,response1disk,7,13,-2,9,1,0,0,rectangle,-2,9,1,0,0,0,2,0,0.00059,-2,9,1,0,0,0,12,12,63,1,,,,,,,,,,,,,,,,,,,,,
,,,,,,,,,,,,,,,,,,,,,,,,,,,,,,,,,,,,,,,,,,,5f7b2ce6b2c8250797d6b54d,5ff3ba19cfa0552381150a9a,2021-01-05_03h00.37.353,Colour_Similarity_Experiment_v1,2020.1.2,Win32,60,5ff3a352adaa099f7659f8cc,,,,,,,,,,,,,,,,,,,,FF,,,,,,,,7,3.049685,,,,,,,,,,,,,,,,,,,,,,,,,,,,6,48,136,1,0,0,response1disk,2,14,4,-2,1,0,0,rectangle,4,-2,1,0,0,0,4,0,0.00061,4,-2,1,0,0,0,13,13,112,1,,,,,,,,,,,,,,,,,,,,,
,,,,,,,,,,,,,,,,,,,,,,,,,,,,,,,,,,,,,,,,,,,5f7b2ce6b2c8250797d6b54d,5ff3ba19cfa0552381150a9a,2021-01-05_03h00.37.353,Colour_Similarity_Experiment_v1,2020.1.2,Win32,60,5ff3a352adaa099f7659f8cc,,,,,,,,,,,,,,,,,,,,PF,,,,,,,,2,4.09182,,,,,,,,,,,,,,,,,,,,,,,,,,,,7,-132,-52,1,0,0,response5disk,8,15,21,8,1,0,0,rectangle,21,8,1,0,0,0,2,0,0.000625,21,8,1,0,0,0,14,14,140,1,,,,,,,,,,,,,,,,,,,,,
,,,,,,,,,,,,,,,,,,,,,,,,,,,,,,,,,,,,,,,,,,,5f7b2ce6b2c8250797d6b54d,5ff3ba19cfa0552381150a9a,2021-01-05_03h00.37.353,Colour_Similarity_Experiment_v1,2020.1.2,Win32,60,5ff3a352adaa099f7659f8cc,,,,,,,,,,,,,,,,,,,,PF,,,,,,,,3,2.164815,,,,,,,,,,,,,,,,,,,,,,,,,,,,2,-53,-156,1,0,0,response5disk,4,16,-6,5,1,0,0,rectangle,-6,5,1,0,0,0,0,0,0.000595,-6,5,1,0,0,0,15,15,127,1,,,,,,,,,,,,,,,,,,,,,
,,,,,,,,,,,,,,,,,,,,,,,,,,,,,,,,,,,,,,,,,,,5f7b2ce6b2c8250797d6b54d,5ff3ba19cfa0552381150a9a,2021-01-05_03h00.37.353,Colour_Similarity_Experiment_v1,2020.1.2,Win32,60,5ff3a352adaa099f7659f8cc,,,,,,,,,,,,,,,,,,,,PF,,,,,,,,0,2.05688,,,,,,,,,,,,,,,,,,,,,,,,,,,,4,-50,124,1,0,0,response7disk,4,17,-4,4,1,0,0,rectangle,-4,4,1,0,0,0,7,0,0.000615,-4,4,1,0,0,0,16,16,70,1,,,,,,,,,,,,,,,,,,,,,
,,,,,,,,,,,,,,,,,,,,,,,,,,,,,,,,,,,,,,,,,,,5f7b2ce6b2c8250797d6b54d,5ff3ba19cfa0552381150a9a,2021-01-05_03h00.37.353,Colour_Similarity_Experiment_v1,2020.1.2,Win32,60,5ff3a352adaa099f7659f8cc,,,,,,,,,,,,,,,,,,,,FF,,,,,,,,5,4.30977,,,,,,,,,,,,,,,,,,,,,,,,,,,,6,126,-45,1,0,0,response3disk,4,18,4,6,1,0,0,rectangle,4,6,1,0,0,0,0,0,0.00061,4,6,1,0,0,0,17,17,56,1,,,,,,,,,,,,,,,,,,,,,
,,,,,,,,,,,,,,,,,,,,,,,,,,,,,,,,,,,,,,,,,,,5f7b2ce6b2c8250797d6b54d,5ff3ba19cfa0552381150a9a,2021-01-05_03h00.37.353,Colour_Similarity_Experiment_v1,2020.1.2,Win32,60,5ff3a352adaa099f7659f8cc,,,,,,,,,,,,,,,,,,,,FF,,,,,,,,2,5.6278,,,,,,,,,,,,,,,,,,,,,,,,,,,,7,-124,-46,1,0,0,response5disk,6,19,-2,3,1,0,0,rectangle,-2,3,1,0,0,0,2,0,0.000695,-2,3,1,0,0,0,18,18,31,1,,,,,,,,,,,,,,,,,,,,,
,,,,,,,,,,,,,,,,,,,,,,,,,,,,,,,,,,,,,,,,,,,5f7b2ce6b2c8250797d6b54d,5ff3ba19cfa0552381150a9a,2021-01-05_03h00.37.353,Colour_Similarity_Experiment_v1,2020.1.2,Win32,60,5ff3a352adaa099f7659f8cc,,,,,,,,,,,,,,,,,,,,PF,,,,,,,,2,3.458625,,,,,,,,,,,,,,,,,,,,,,,,,,,,9,-135,-42,1,0,0,response5disk,1,20,0,-1,1,0,0,rectangle,0,-1,1,0,0,0,2,0,0.000615,0,-1,1,0,0,0,19,19,74,1,,,,,,,,,,,,,,,,,,,,,
,,,,,,,,,,,,,,,,,,,,,,,,,,,,,,,,,,,,,,,,,,,5f7b2ce6b2c8250797d6b54d,5ff3ba19cfa0552381150a9a,2021-01-05_03h00.37.353,Colour_Similarity_Experiment_v1,2020.1.2,Win32,60,5ff3a352adaa099f7659f8cc,,,,,,,,,,,,,,,,,,,,FF,,,,,,,,3,2.905095,,,,,,,,,,,,,,,,,,,,,,,,,,,,4,-58,-144,1,0,0,response5disk,6,21,5,7,1,0,0,rectangle,5,7,1,0,0,0,4,0,0.00059,5,7,1,0,0,0,20,20,122,1,,,,,,,,,,,,,,,,,,,,,
,,,,,,,,,,,,,,,,,,,,,,,,,,,,,,,,,,,,,,,,,,,5f7b2ce6b2c8250797d6b54d,5ff3ba19cfa0552381150a9a,2021-01-05_03h00.37.353,Colour_Similarity_Experiment_v1,2020.1.2,Win32,60,5ff3a352adaa099f7659f8cc,,,,,,,,,,,,,,,,,,,,PF,,,,,,,,6,2.37491,,,,,,,,,,,,,,,,,,,,,,,,,,,,3,135,38,1,0,0,response1disk,8,22,-3,3,1,0,0,rectangle,-3,3,1,0,0,0,4,0,0.000625,-3,3,1,0,0,0,21,21,3,1,,,,,,,,,,,,,,,,,,,,,
,,,,,,,,,,,,,,,,,,,,,,,,,,,,,,,,,,,,,,,,,,,5f7b2ce6b2c8250797d6b54d,5ff3ba19cfa0552381150a9a,2021-01-05_03h00.37.353,Colour_Similarity_Experiment_v1,2020.1.2,Win32,60,5ff3a352adaa099f7659f8cc,,,,,,,,,,,,,,,,,,,,FF,,,,,,,,3,5.11243,,,,,,,,,,,,,,,,,,,,,,,,,,,,2,-66,-134,1,0,0,response5disk,5,23,6,7,1,0,0,rectangle,6,7,1,0,0,0,6,0,0.00081,6,7,1,0,0,0,22,22,80,1,,,,,,,,,,,,,,,,,,,,,
,,,,,,,,,,,,,,,,,,,,,,,,,,,,,,,,,,,,,,,,,,,5f7b2ce6b2c8250797d6b54d,5ff3ba19cfa0552381150a9a,2021-01-05_03h00.37.353,Colour_Similarity_Experiment_v1,2020.1.2,Win32,60,5ff3a352adaa099f7659f8cc,,,,,,,,,,,,,,,,,,,,FF,,,,,,,,5,3.692345,,,,,,,,,,,,,,,,,,,,,,,,,,,,3,120,-43,1,0,0,response3disk,7,24,12,10,1,0,0,rectangle,12,10,1,0,0,0,0,0,0.000595,12,10,1,0,0,0,23,23,118,1,,,,,,,,,,,,,,,,,,,,,
,,,,,,,,,,,,,,,,,,,,,,,,,,,,,,,,,,,,,,,,,,,5f7b2ce6b2c8250797d6b54d,5ff3ba19cfa0552381150a9a,2021-01-05_03h00.37.353,Colour_Similarity_Experiment_v1,2020.1.2,Win32,60,5ff3a352adaa099f7659f8cc,,,,,,,,,,,,,,,,,,,,FF,,,,,,,,5,3.7659,,,,,,,,,,,,,,,,,,,,,,,,,,,,1,116,-50,1,0,0,response3disk,4,25,3,-9,1,0,0,rectangle,3,-9,1,0,0,0,2,0,0.000585,3,-9,1,0,0,0,24,24,135,1,,,,,,,,,,,,,,,,,,,,,
,,,,,,,,,,,,,,,,,,,,,,,,,,,,,,,,,,,,,,,,,,,5f7b2ce6b2c8250797d6b54d,5ff3ba19cfa0552381150a9a,2021-01-05_03h00.37.353,Colour_Similarity_Experiment_v1,2020.1.2,Win32,60,5ff3a352adaa099f7659f8cc,,,,,,,,,,,,,,,,,,,,PF,,,,,,,,2,2.582195,,,,,,,,,,,,,,,,,,,,,,,,,,,,6,-127,-35,1,0,0,response5disk,7,26,8,3,1,0,0,rectangle,8,3,1,0,0,0,2,0,0.000605,8,3,1,0,0,0,25,25,50,1,,,,,,,,,,,,,,,,,,,,,
,,,,,,,,,,,,,,,,,,,,,,,,,,,,,,,,,,,,,,,,,,,5f7b2ce6b2c8250797d6b54d,5ff3ba19cfa0552381150a9a,2021-01-05_03h00.37.353,Colour_Similarity_Experiment_v1,2020.1.2,Win32,60,5ff3a352adaa099f7659f8cc,,,,,,,,,,,,,,,,,,,,PF,,,,,,,,7,4.336075,,,,,,,,,,,,,,,,,,,,,,,,,,,,4,70,131,1,0,0,response1disk,9,27,-17,4,1,0,0,rectangle,-17,4,1,0,0,0,7,0,0.000585,-17,4,1,0,0,0,26,26,75,1,,,,,,,,,,,,,,,,,,,,,
,,,,,,,,,,,,,,,,,,,,,,,,,,,,,,,,,,,,,,,,,,,5f7b2ce6b2c8250797d6b54d,5ff3ba19cfa0552381150a9a,2021-01-05_03h00.37.353,Colour_Similarity_Experiment_v1,2020.1.2,Win32,60,5ff3a352adaa099f7659f8cc,,,,,,,,,,,,,,,,,,,,PF,,,,,,,,0,1.405655,,,,,,,,,,,,,,,,,,,,,,,,,,,,2,-45,157,1,0,0,response7disk,2,28,1,0,1,0,0,rectangle,1,0,1,0,0,0,2,0,0.000625,1,0,1,0,0,0,27,27,14,1,,,,,,,,,,,,,,,,,,,,,
,,,,,,,,,,,,,,,,,,,,,,,,,,,,,,,,,,,,,,,,,,,5f7b2ce6b2c8250797d6b54d,5ff3ba19cfa0552381150a9a,2021-01-05_03h00.37.353,Colour_Similarity_Experiment_v1,2020.1.2,Win32,60,5ff3a352adaa099f7659f8cc,,,,,,,,,,,,,,,,,,,,PF,,,,,,,,6,3.46402,,,,,,,,,,,,,,,,,,,,,,,,,,,,2,116,86,1,0,0,response1disk,6,29,4,3,1,0,0,rectangle,4,3,1,0,0,0,1,0,0.000675,4,3,1,0,0,0,28,28,113,1,,,,,,,,,,,,,,,,,,,,,
,,,,,,,,,,,,,,,,,,,,,,,,,,,,,,,,,,,,,,,,,,,5f7b2ce6b2c8250797d6b54d,5ff3ba19cfa0552381150a9a,2021-01-05_03h00.37.353,Colour_Similarity_Experiment_v1,2020.1.2,Win32,60,5ff3a352adaa099f7659f8cc,,,,,,,,,,,,,,,,,,,,PF,,,,,,,,4,4.220805,,,,,,,,,,,,,,,,,,,,,,,,,,,,6,51,-133,1,0,0,response3disk,3,30,-11,4,1,0,0,rectangle,-11,4,1,0,0,0,2,0,0.000625,-11,4,1,0,0,0,29,29,26,1,,,,,,,,,,,,,,,,,,,,,
,,,,,,,,,,,,,,,,,,,,,,,,,,,,,,,,,,,,,,,,,,,5f7b2ce6b2c8250797d6b54d,5ff3ba19cfa0552381150a9a,2021-01-05_03h00.37.353,Colour_Similarity_Experiment_v1,2020.1.2,Win32,60,5ff3a352adaa099f7659f8cc,,,,,,,,,,,,,,,,,,,,FF,,,,,,,,4,2.700205,,,,,,,,,,,,,,,,,,,,,,,,,,,,5,43,-131,1,0,0,response3disk,8,31,-1,-7,1,0,0,rectangle,-1,-7,1,0,0,0,1,0,0.000625,-1,-7,1,0,0,0,30,30,16,1,,,,,,,,,,,,,,,,,,,,,
,,,,,,,,,,,,,,,,,,,,,,,,,,,,,,,,,,,,,,,,,,,5f7b2ce6b2c8250797d6b54d,5ff3ba19cfa0552381150a9a,2021-01-05_03h00.37.353,Colour_Similarity_Experiment_v1,2020.1.2,Win32,60,5ff3a352adaa099f7659f8cc,,,,,,,,,,,,,,,,,,,,FF,,,,,,,,5,3.081035,,,,,,,,,,,,,,,,,,,,,,,,,,,,5,127,-45,1,0,0,response3disk,1,32,-2,17,1,0,0,rectangle,-2,17,1,0,0,0,5,0,0.000565,-2,17,1,0,0,0,31,31,131,1,,,,,,,,,,,,,,,,,,,,,
,,,,,,,,,,,,,,,,,,,,,,,,,,,,,,,,,,,,,,,,,,,5f7b2ce6b2c8250797d6b54d,5ff3ba19cfa0552381150a9a,2021-01-05_03h00.37.353,Colour_Similarity_Experiment_v1,2020.1.2,Win32,60,5ff3a352adaa099f7659f8cc,,,,,,,,,,,,,,,,,,,,FF,,,,,,,,4,3.080655,,,,,,,,,,,,,,,,,,,,,,,,,,,,8,53,-134,1,0,0,response3disk,4,33,-3,0,1,0,0,rectangle,-3,0,1,0,0,0,5,0,0.000545,-3,0,1,0,0,0,32,32,88,1,,,,,,,,,,,,,,,,,,,,,
,,,,,,,,,,,,,,,,,,,,,,,,,,,,,,,,,,,,,,,,,,,5f7b2ce6b2c8250797d6b54d,5ff3ba19cfa0552381150a9a,2021-01-05_03h00.37.353,Colour_Similarity_Experiment_v1,2020.1.2,Win32,60,5ff3a352adaa099f7659f8cc,,,,,,,,,,,,,,,,,,,,PF,,,,,,,,0,1.249525,,,,,,,,,,,,,,,,,,,,,,,,,,,,9,-38,138,1,0,0,response7disk,9,34,7,16,1,0,0,rectangle,7,16,1,0,0,0,2,0,0.000595,7,16,1,0,0,0,33,33,106,1,,,,,,,,,,,,,,,,,,,,,
,,,,,,,,,,,,,,,,,,,,,,,,,,,,,,,,,,,,,,,,,,,5f7b2ce6b2c8250797d6b54d,5ff3ba19cfa0552381150a9a,2021-01-05_03h00.37.353,Colour_Similarity_Experiment_v1,2020.1.2,Win32,60,5ff3a352adaa099f7659f8cc,,,,,,,,,,,,,,,,,,,,PF,,,,,,,,3,2.93539,,,,,,,,,,,,,,,,,,,,,,,,,,,,4,-62,-138,1,0,0,response5disk,2,35,-2,17,1,0,0,rectangle,-2,17,1,0,0,0,6,0,0.00065,-2,17,1,0,0,0,34,34,108,1,,,,,,,,,,,,,,,,,,,,,
,,,,,,,,,,,,,,,,,,,,,,,,,,,,,,,,,,,,,,,,,,,5f7b2ce6b2c8250797d6b54d,5ff3ba19cfa0552381150a9a,2021-01-05_03h00.37.353,Colour_Similarity_Experiment_v1,2020.1.2,Win32,60,5ff3a352adaa099f7659f8cc,,,,,,,,,,,,,,,,,,,,PF,,,,,,,,5,3.0738,,,,,,,,,,,,,,,,,,,,,,,,,,,,7,121,-49,1,0,0,response3disk,3,36,-4,-1,1,0,0,rectangle,-4,-1,1,0,0,0,3,0,0.00063,-4,-1,1,0,0,0,35,35,81,1,,,,,,,,,,,,,,,,,,,,,
,,,,,,,,,,,,,,,,,,,,,,,,,,,,,,,,,,,,,,,,,,,5f7b2ce6b2c8250797d6b54d,5ff3ba19cfa0552381150a9a,2021-01-05_03h00.37.353,Colour_Similarity_Experiment_v1,2020.1.2,Win32,60,5ff3a352adaa099f7659f8cc,,,,,,,,,,,,,,,,,,,,PF,,,,,,,,6,2.8438,,,,,,,,,,,,,,,,,,,,,,,,,,,,9,102,43,1,0,0,response1disk,4,37,-18,-1,1,0,0,rectangle,-18,-1,1,0,0,0,3,0,0.000655,-18,-1,1,0,0,0,36,36,114,1,,,,,,,,,,,,,,,,,,,,,
,,,,,,,,,,,,,,,,,,,,,,,,,,,,,,,,,,,,,,,,,,,5f7b2ce6b2c8250797d6b54d,5ff3ba19cfa0552381150a9a,2021-01-05_03h00.37.353,Colour_Similarity_Experiment_v1,2020.1.2,Win32,60,5ff3a352adaa099f7659f8cc,,,,,,,,,,,,,,,,,,,,FF,,,,,,,,2,2.71224,,,,,,,,,,,,,,,,,,,,,,,,,,,,6,-108,-46,1,0,0,response5disk,5,38,4,20,1,0,0,rectangle,4,20,1,0,0,0,0,0,0.000605,4,20,1,0,0,0,37,37,126,1,,,,,,,,,,,,,,,,,,,,,
,,,,,,,,,,,,,,,,,,,,,,,,,,,,,,,,,,,,,,,,,,,5f7b2ce6b2c8250797d6b54d,5ff3ba19cfa0552381150a9a,2021-01-05_03h00.37.353,Colour_Similarity_Experiment_v1,2020.1.2,Win32,60,5ff3a352adaa099f7659f8cc,,,,,,,,,,,,,,,,,,,,FF,,,,,,,,6,1.517925,,,,,,,,,,,,,,,,,,,,,,,,,,,,7,138,58,1,0,0,response1disk,2,39,-6,-5,1,0,0,rectangle,-6,-5,1,0,0,0,7,0,0.00061,-6,-5,1,0,0,0,38,38,138,1,,,,,,,,,,,,,,,,,,,,,
,,,,,,,,,,,,,,,,,,,,,,,,,,,,,,,,,,,,,,,,,,,5f7b2ce6b2c8250797d6b54d,5ff3ba19cfa0552381150a9a,2021-01-05_03h00.37.353,Colour_Similarity_Experiment_v1,2020.1.2,Win32,60,5ff3a352adaa099f7659f8cc,,,,,,,,,,,,,,,,,,,,PF,,,,,,,,7,5.47917,,,,,,,,,,,,,,,,,,,,,,,,,,,,9,43,131,1,0,0,response1disk,2,40,3,3,1,0,0,rectangle,3,3,1,0,0,0,0,0,0.00066,3,3,1,0,0,0,39,39,157,1,,,,,,,,,,,,,,,,,,,,,
,,,,,,,,,,,,,,,,,,,,,,,,,,,,,,,,,,,,,,,,,,,5f7b2ce6b2c8250797d6b54d,5ff3ba19cfa0552381150a9a,2021-01-05_03h00.37.353,Colour_Similarity_Experiment_v1,2020.1.2,Win32,60,5ff3a352adaa099f7659f8cc,,,,,,,,,,,,,,,,,,,,FF,,,,,,,,6,4.56785,,,,,,,,,,,,,,,,,,,,,,,,,,,,8,139,68,1,0,0,response1disk,3,41,-10,5,1,0,0,rectangle,-10,5,1,0,0,0,7,0,0.00063,-10,5,1,0,0,0,40,40,154,1,,,,,,,,,,,,,,,,,,,,,
,,,,,,,,,,,,,,,,,,,,,,,,,,,,,,,,,,,,,,,,,,,5f7b2ce6b2c8250797d6b54d,5ff3ba19cfa0552381150a9a,2021-01-05_03h00.37.353,Colour_Similarity_Experiment_v1,2020.1.2,Win32,60,5ff3a352adaa099f7659f8cc,,,,,,,,,,,,,,,,,,,,FF,,,,,,,,6,3.96141,,,,,,,,,,,,,,,,,,,,,,,,,,,,9,128,56,1,0,0,response1disk,2,42,8,9,1,0,0,rectangle,-131,-54,1,0,0,0,2,1,4.48699,7,17,1,0,0,0,41,41,11,1,response5disk_3,rectangle,,,,,,,,,,,,,,,,,,,
,,,,,,,,,,,,,,,,,,,,,,,,,,,,,,,,,,,,,,,,,,,5f7b2ce6b2c8250797d6b54d,5ff3ba19cfa0552381150a9a,2021-01-05_03h00.37.353,Colour_Similarity_Experiment_v1,2020.1.2,Win32,60,5ff3a352adaa099f7659f8cc,,,,,,,,,,,,,,,,,,,,PF,,,,,,,,3,2.31097,,,,,,,,,,,,,,,,,,,,,,,,,,,,1,-49,-134,1,0,0,response5disk,8,43,0,8,1,0,0,rectangle,0,8,1,0,0,0,6,0,0.000565,0,8,1,0,0,0,42,42,65,1,,,,,,,,,,,,,,,,,,,,,
,,,,,,,,,,,,,,,,,,,,,,,,,,,,,,,,,,,,,,,,,,,5f7b2ce6b2c8250797d6b54d,5ff3ba19cfa0552381150a9a,2021-01-05_03h00.37.353,Colour_Similarity_Experiment_v1,2020.1.2,Win32,60,5ff3a352adaa099f7659f8cc,,,,,,,,,,,,,,,,,,,,FF,,,,,,,,0,1.30531,,,,,,,,,,,,,,,,,,,,,,,,,,,,6,-38,128,1,0,0,response7disk,6,44,-3,-5,1,0,0,rectangle,-3,-5,1,0,0,0,2,0,0.00066,-3,-5,1,0,0,0,43,43,91,1,,,,,,,,,,,,,,,,,,,,,
,,,,,,,,,,,,,,,,,,,,,,,,,,,,,,,,,,,,,,,,,,,5f7b2ce6b2c8250797d6b54d,5ff3ba19cfa0552381150a9a,2021-01-05_03h00.37.353,Colour_Similarity_Experiment_v1,2020.1.2,Win32,60,5ff3a352adaa099f7659f8cc,,,,,,,,,,,,,,,,,,,,PF,,,,,,,,2,2.31462,,,,,,,,,,,,,,,,,,,,,,,,,,,,7,-124,-51,1,0,0,response5disk,5,45,5,-16,1,0,0,rectangle,5,-16,1,0,0,0,0,0,0.000605,5,-16,1,0,0,0,44,44,92,1,,,,,,,,,,,,,,,,,,,,,
,,,,,,,,,,,,,,,,,,,,,,,,,,,,,,,,,,,,,,,,,,,5f7b2ce6b2c8250797d6b54d,5ff3ba19cfa0552381150a9a,2021-01-05_03h00.37.353,Colour_Similarity_Experiment_v1,2020.1.2,Win32,60,5ff3a352adaa099f7659f8cc,,,,,,,,,,,,,,,,,,,,PF,,,,,,,,0,1.17245,,,,,,,,,,,,,,,,,,,,,,,,,,,,8,-53,128,1,0,0,response7disk,8,46,-3,1,1,0,0,rectangle,-3,1,1,0,0,0,3,0,0.000615,-3,1,1,0,0,0,45,45,153,1,,,,,,,,,,,,,,,,,,,,,
,,,,,,,,,,,,,,,,,,,,,,,,,,,,,,,,,,,,,,,,,,,5f7b2ce6b2c8250797d6b54d,5ff3ba19cfa0552381150a9a,2021-01-05_03h00.37.353,Colour_Similarity_Experiment_v1,2020.1.2,Win32,60,5ff3a352adaa099f7659f8cc,,,,,,,,,,,,,,,,,,,,FF,,,,,,,,5,3.69279,,,,,,,,,,,,,,,,,,,,,,,,,,,,9,117,-45,1,0,0,response3disk,3,47,-6,2,1,0,0,rectangle,-6,2,1,0,0,0,5,0,0.00066,-6,2,1,0,0,0,46,46,141,1,,,,,,,,,,,,,,,,,,,,,
,,,,,,,,,,,,,,,,,,,,,,,,,,,,,,,,,,,,,,,,,,,5f7b2ce6b2c8250797d6b54d,5ff3ba19cfa0552381150a9a,2021-01-05_03h00.37.353,Colour_Similarity_Experiment_v1,2020.1.2,Win32,60,5ff3a352adaa099f7659f8cc,,,,,,,,,,,,,,,,,,,,FF,,,,,,,,4,2.92039,,,,,,,,,,,,,,,,,,,,,,,,,,,,6,47,-124,1,0,0,response3disk,3,48,-11,-1,1,0,0,rectangle,-11,-1,1,0,0,0,4,0,0.00064,-11,-1,1,0,0,0,47,47,21,1,,,,,,,,,,,,,,,,,,,,,
,,,,,,,,,,,,,,,,,,,,,,,,,,,,,,,,,,,,,,,,,,,5f7b2ce6b2c8250797d6b54d,5ff3ba19cfa0552381150a9a,2021-01-05_03h00.37.353,Colour_Similarity_Experiment_v1,2020.1.2,Win32,60,5ff3a352adaa099f7659f8cc,,,,,,,,,,,,,,,,,,,,PF,,,,,,,,3,1.941225,,,,,,,,,,,,,,,,,,,,,,,,,,,,3,-51,-124,1,0,0,response5disk,2,49,-13,-3,1,0,0,rectangle,58,-110,1,0,0,4,4,1,2.506865,-1,2,1,0,0,0,48,48,36,1,response3disk_3,rectangle,,,,,,,,,,,,,,,,,,,
,,,,,,,,,,,,,,,,,,,,,,,,,,,,,,,,,,,,,,,,,,,5f7b2ce6b2c8250797d6b54d,5ff3ba19cfa0552381150a9a,2021-01-05_03h00.37.353,Colour_Similarity_Experiment_v1,2020.1.2,Win32,60,5ff3a352adaa099f7659f8cc,,,,,,,,,,,,,,,,,,,,FF,,,,,,,,0,1.15757,,,,,,,,,,,,,,,,,,,,,,,,,,,,2,-48,140,1,0,0,response7disk,2,50,0,6,1,0,0,rectangle,0,6,1,0,0,4,6,0,0.000655,0,6,1,0,0,0,49,49,142,1,,,,,,,,,,,,,,,,,,,,,
,,,,,,,,,,,,,,,,,,,,,,,,,,,,,,,,,,,,,,,,,,,5f7b2ce6b2c8250797d6b54d,5ff3ba19cfa0552381150a9a,2021-01-05_03h00.37.353,Colour_Similarity_Experiment_v1,2020.1.2,Win32,60,5ff3a352adaa099f7659f8cc,,,,,,,,,,,,,,,,,,,,FF,,,,,,,,3,2.981905,,,,,,,,,,,,,,,,,,,,,,,,,,,,5,-54,-142,1,0,0,response5disk,9,51,-8,-15,1,0,0,rectangle,-8,-15,1,0,0,4,4,0,0.000575,-8,-15,1,0,0,0,50,50,61,1,,,,,,,,,,,,,,,,,,,,,
,,,,,,,,,,,,,,,,,,,,,,,,,,,,,,,,,,,,,,,,,,,5f7b2ce6b2c8250797d6b54d,5ff3ba19cfa0552381150a9a,2021-01-05_03h00.37.353,Colour_Similarity_Experiment_v1,2020.1.2,Win32,60,5ff3a352adaa099f7659f8cc,,,,,,,,,,,,,,,,,,,,FF,,,,,,,,2,5.433315,,,,,,,,,,,,,,,,,,,,,,,,,,,,1,-117,-54,1,0,0,response5disk,9,52,-18,-8,1,0,0,rectangle,-18,-8,1,0,0,4,7,0,0.000575,-18,-8,1,0,0,0,51,51,123,1,,,,,,,,,,,,,,,,,,,,,
,,,,,,,,,,,,,,,,,,,,,,,,,,,,,,,,,,,,,,,,,,,5f7b2ce6b2c8250797d6b54d,5ff3ba19cfa0552381150a9a,2021-01-05_03h00.37.353,Colour_Similarity_Experiment_v1,2020.1.2,Win32,60,5ff3a352adaa099f7659f8cc,,,,,,,,,,,,,,,,,,,,PF,,,,,,,,0,1.04164,,,,,,,,,,,,,,,,,,,,,,,,,,,,3,-31,131,1,0,0,response7disk,3,53,-4,14,1,0,0,rectangle,-4,14,1,0,0,4,0,0,0.000975,-4,14,1,0,0,0,52,52,4,1,,,,,,,,,,,,,,,,,,,,,
,,,,,,,,,,,,,,,,,,,,,,,,,,,,,,,,,,,,,,,,,,,5f7b2ce6b2c8250797d6b54d,5ff3ba19cfa0552381150a9a,2021-01-05_03h00.37.353,Colour_Similarity_Experiment_v1,2020.1.2,Win32,60,5ff3a352adaa099f7659f8cc,,,,,,,,,,,,,,,,,,,,FF,,,,,,,,1,2.86468,,,,,,,,,,,,,,,,,,,,,,,,,,,,3,-125,47,1,0,0,response7disk,4,54,-8,3,1,0,0,rectangle,-8,3,1,0,0,4,2,0,0.000665,-8,3,1,0,0,0,53,53,110,1,,,,,,,,,,,,,,,,,,,,,
,,,,,,,,,,,,,,,,,,,,,,,,,,,,,,,,,,,,,,,,,,,5f7b2ce6b2c8250797d6b54d,5ff3ba19cfa0552381150a9a,2021-01-05_03h00.37.353,Colour_Similarity_Experiment_v1,2020.1.2,Win32,60,5ff3a352adaa099f7659f8cc,,,,,,,,,,,,,,,,,,,,PF,,,,,,,,3,2.87351,,,,,,,,,,,,,,,,,,,,,,,,,,,,6,-52,-144,1,0,0,response5disk,8,55,8,2,1,0,0,rectangle,8,2,1,0,0,4,1,0,0.00053,8,2,1,0,0,0,54,54,64,1,,,,,,,,,,,,,,,,,,,,,
,,,,,,,,,,,,,,,,,,,,,,,,,,,,,,,,,,,,,,,,,,,5f7b2ce6b2c8250797d6b54d,5ff3ba19cfa0552381150a9a,2021-01-05_03h00.37.353,Colour_Similarity_Experiment_v1,2020.1.2,Win32,60,5ff3a352adaa099f7659f8cc,,,,,,,,,,,,,,,,,,,,FF,,,,,,,,3,2.167135,,,,,,,,,,,,,,,,,,,,,,,,,,,,3,-48,-132,1,0,0,response5disk,2,56,-2,-3,1,0,0,rectangle,-2,-3,1,0,0,4,5,0,0.000555,-2,-3,1,0,0,0,55,55,93,1,,,,,,,,,,,,,,,,,,,,,
,,,,,,,,,,,,,,,,,,,,,,,,,,,,,,,,,,,,,,,,,,,5f7b2ce6b2c8250797d6b54d,5ff3ba19cfa0552381150a9a,2021-01-05_03h00.37.353,Colour_Similarity_Experiment_v1,2020.1.2,Win32,60,5ff3a352adaa099f7659f8cc,,,,,,,,,,,,,,,,,,,,FF,,,,,,,,1,2.349975,,,,,,,,,,,,,,,,,,,,,,,,,,,,9,-129,53,1,0,0,response7disk,9,57,10,3,1,0,0,rectangle,10,3,1,0,0,4,3,0,0.000545,10,3,1,0,0,0,56,56,17,1,,,,,,,,,,,,,,,,,,,,,
,,,,,,,,,,,,,,,,,,,,,,,,,,,,,,,,,,,,,,,,,,,5f7b2ce6b2c8250797d6b54d,5ff3ba19cfa0552381150a9a,2021-01-05_03h00.37.353,Colour_Similarity_Experiment_v1,2020.1.2,Win32,60,5ff3a352adaa099f7659f8cc,,,,,,,,,,,,,,,,,,,,FF,,,,,,,,5,1.9493,,,,,,,,,,,,,,,,,,,,,,,,,,,,4,118,-48,1,0,0,response3disk,8,58,-12,1,1,0,0,rectangle,-12,1,1,0,0,4,1,0,0.000605,-12,1,1,0,0,0,57,57,35,1,,,,,,,,,,,,,,,,,,,,,
,,,,,,,,,,,,,,,,,,,,,,,,,,,,,,,,,,,,,,,,,,,5f7b2ce6b2c8250797d6b54d,5ff3ba19cfa0552381150a9a,2021-01-05_03h00.37.353,Colour_Similarity_Experiment_v1,2020.1.2,Win32,60,5ff3a352adaa099f7659f8cc,,,,,,,,,,,,,,,,,,,,PF,,,,,,,,5,1.649905,,,,,,,,,,,,,,,,,,,,,,,,,,,,8,130,-37,1,0,0,response3disk,4,59,-14,6,1,0,0,rectangle,-14,6,1,0,0,4,4,0,0.000545,-14,6,1,0,0,0,58,58,78,1,,,,,,,,,,,,,,,,,,,,,
,,,,,,,,,,,,,,,,,,,,,,,,,,,,,,,,,,,,,,,,,,,5f7b2ce6b2c8250797d6b54d,5ff3ba19cfa0552381150a9a,2021-01-05_03h00.37.353,Colour_Similarity_Experiment_v1,2020.1.2,Win32,60,5ff3a352adaa099f7659f8cc,,,,,,,,,,,,,,,,,,,,PF,,,,,,,,4,3.716585,,,,,,,,,,,,,,,,,,,,,,,,,,,,6,40,-120,1,0,0,response3disk,4,60,13,-8,1,0,0,rectangle,13,-8,1,0,0,4,0,0,0.000555,13,-8,1,0,0,0,59,59,33,1,,,,,,,,,,,,,,,,,,,,,
,,,,,,,,,,,,,,,,,,,,,,,,,,,,,,,,,,,,,,,,,,,5f7b2ce6b2c8250797d6b54d,5ff3ba19cfa0552381150a9a,2021-01-05_03h00.37.353,Colour_Similarity_Experiment_v1,2020.1.2,Win32,60,5ff3a352adaa099f7659f8cc,,,,,,,,,,,,,,,,,,,,FF,,,,,,,,1,1.71711,,,,,,,,,,,,,,,,,,,,,,,,,,,,3,-84,58,1,0,0,response7disk,3,61,-7,16,1,0,0,rectangle,-7,16,1,0,0,4,0,0,0.000595,-7,16,1,0,0,0,60,60,68,1,,,,,,,,,,,,,,,,,,,,,
,,,,,,,,,,,,,,,,,,,,,,,,,,,,,,,,,,,,,,,,,,,5f7b2ce6b2c8250797d6b54d,5ff3ba19cfa0552381150a9a,2021-01-05_03h00.37.353,Colour_Similarity_Experiment_v1,2020.1.2,Win32,60,5ff3a352adaa099f7659f8cc,,,,,,,,,,,,,,,,,,,,FF,,,,,,,,3,1.73448,,,,,,,,,,,,,,,,,,,,,,,,,,,,4,-52,-124,1,0,0,response5disk,2,62,-14,-4,1,0,0,rectangle,-14,-4,1,0,0,4,1,0,0.00056,-14,-4,1,0,0,0,61,61,13,1,,,,,,,,,,,,,,,,,,,,,
,,,,,,,,,,,,,,,,,,,,,,,,,,,,,,,,,,,,,,,,,,,5f7b2ce6b2c8250797d6b54d,5ff3ba19cfa0552381150a9a,2021-01-05_03h00.37.353,Colour_Similarity_Experiment_v1,2020.1.2,Win32,60,5ff3a352adaa099f7659f8cc,,,,,,,,,,,,,,,,,,,,FF,,,,,,,,4,3.43335,,,,,,,,,,,,,,,,,,,,,,,,,,,,7,41,-111,1,0,0,response3disk,4,63,-14,0,1,0,0,rectangle,-14,0,1,0,0,4,4,0,0.000525,-14,0,1,0,0,0,62,62,158,1,,,,,,,,,,,,,,,,,,,,,
,,,,,,,,,,,,,,,,,,,,,,,,,,,,,,,,,,,,,,,,,,,5f7b2ce6b2c8250797d6b54d,5ff3ba19cfa0552381150a9a,2021-01-05_03h00.37.353,Colour_Similarity_Experiment_v1,2020.1.2,Win32,60,5ff3a352adaa099f7659f8cc,,,,,,,,,,,,,,,,,,,,FF,,,,,,,,3,1.783555,,,,,,,,,,,,,,,,,,,,,,,,,,,,2,-47,-142,1,0,0,response5disk,3,64,-1,-12,1,0,0,rectangle,-67,146,1,0,0,0,0,1,2.316085,11,1,1,0,0,0,63,63,104,1,response7disk_3,rectangle,,,,,,,,,,,,,,,,,,,
,,,,,,,,,,,,,,,,,,,,,,,,,,,,,,,,,,,,,,,,,,,5f7b2ce6b2c8250797d6b54d,5ff3ba19cfa0552381150a9a,2021-01-05_03h00.37.353,Colour_Similarity_Experiment_v1,2020.1.2,Win32,60,5ff3a352adaa099f7659f8cc,,,,,,,,,,,,,,,,,,,,FF,,,,,,,,4,2.900835,,,,,,,,,,,,,,,,,,,,,,,,,,,,1,39,-139,1,0,0,response3disk,3,65,7,-4,1,0,0,rectangle,7,-4,1,0,0,0,1,0,0.000565,7,-4,1,0,0,0,64,64,99,1,,,,,,,,,,,,,,,,,,,,,
,,,,,,,,,,,,,,,,,,,,,,,,,,,,,,,,,,,,,,,,,,,5f7b2ce6b2c8250797d6b54d,5ff3ba19cfa0552381150a9a,2021-01-05_03h00.37.353,Colour_Similarity_Experiment_v1,2020.1.2,Win32,60,5ff3a352adaa099f7659f8cc,,,,,,,,,,,,,,,,,,,,PF,,,,,,,,5,1.949255,,,,,,,,,,,,,,,,,,,,,,,,,,,,7,109,-46,1,0,0,response3disk,9,66,-17,-5,1,0,0,rectangle,-17,-5,1,0,0,0,4,0,0.00058,-17,-5,1,0,0,0,65,65,10,1,,,,,,,,,,,,,,,,,,,,,
,,,,,,,,,,,,,,,,,,,,,,,,,,,,,,,,,,,,,,,,,,,5f7b2ce6b2c8250797d6b54d,5ff3ba19cfa0552381150a9a,2021-01-05_03h00.37.353,Colour_Similarity_Experiment_v1,2020.1.2,Win32,60,5ff3a352adaa099f7659f8cc,,,,,,,,,,,,,,,,,,,,FF,,,,,,,,3,2.4666,,,,,,,,,,,,,,,,,,,,,,,,,,,,2,-52,-141,1,0,0,response5disk,1,67,1,2,1,0,0,rectangle,1,2,1,0,0,0,1,0,0.000605,1,2,1,0,0,0,66,66,85,1,,,,,,,,,,,,,,,,,,,,,
,,,,,,,,,,,,,,,,,,,,,,,,,,,,,,,,,,,,,,,,,,,5f7b2ce6b2c8250797d6b54d,5ff3ba19cfa0552381150a9a,2021-01-05_03h00.37.353,Colour_Similarity_Experiment_v1,2020.1.2,Win32,60,5ff3a352adaa099f7659f8cc,,,,,,,,,,,,,,,,,,,,FF,,,,,,,,5,2.016875,,,,,,,,,,,,,,,,,,,,,,,,,,,,4,96,-42,1,0,0,response3disk,9,68,-19,-17,1,0,0,rectangle,-19,-17,1,0,0,0,3,0,0.00057,-19,-17,1,0,0,0,67,67,90,1,,,,,,,,,,,,,,,,,,,,,
,,,,,,,,,,,,,,,,,,,,,,,,,,,,,,,,,,,,,,,,,,,5f7b2ce6b2c8250797d6b54d,5ff3ba19cfa0552381150a9a,2021-01-05_03h00.37.353,Colour_Similarity_Experiment_v1,2020.1.2,Win32,60,5ff3a352adaa099f7659f8cc,,,,,,,,,,,,,,,,,,,,PF,,,,,,,,6,3.266105,,,,,,,,,,,,,,,,,,,,,,,,,,,,1,131,54,1,0,0,response1disk,3,69,-11,2,1,0,0,rectangle,-11,2,1,0,0,0,3,0,0.000565,-11,2,1,0,0,0,68,68,1,1,,,,,,,,,,,,,,,,,,,,,
,,,,,,,,,,,,,,,,,,,,,,,,,,,,,,,,,,,,,,,,,,,5f7b2ce6b2c8250797d6b54d,5ff3ba19cfa0552381150a9a,2021-01-05_03h00.37.353,Colour_Similarity_Experiment_v1,2020.1.2,Win32,60,5ff3a352adaa099f7659f8cc,,,,,,,,,,,,,,,,,,,,PF,,,,,,,,1,1.366335,,,,,,,,,,,,,,,,,,,,,,,,,,,,7,-139,41,1,0,0,response7disk,6,70,5,-6,1,0,0,rectangle,5,-6,1,0,0,0,3,0,0.000545,5,-6,1,0,0,0,69,69,29,1,,,,,,,,,,,,,,,,,,,,,
,,,,,,,,,,,,,,,,,,,,,,,,,,,,,,,,,,,,,,,,,,,5f7b2ce6b2c8250797d6b54d,5ff3ba19cfa0552381150a9a,2021-01-05_03h00.37.353,Colour_Similarity_Experiment_v1,2020.1.2,Win32,60,5ff3a352adaa099f7659f8cc,,,,,,,,,,,,,,,,,,,,FF,,,,,,,,1,1.616885,,,,,,,,,,,,,,,,,,,,,,,,,,,,8,-137,45,1,0,0,response7disk,9,71,20,-7,1,0,0,rectangle,20,-7,1,0,0,0,7,0,0.00059,20,-7,1,0,0,0,70,70,105,1,,,,,,,,,,,,,,,,,,,,,
,,,,,,,,,,,,,,,,,,,,,,,,,,,,,,,,,,,,,,,,,,,5f7b2ce6b2c8250797d6b54d,5ff3ba19cfa0552381150a9a,2021-01-05_03h00.37.353,Colour_Similarity_Experiment_v1,2020.1.2,Win32,60,5ff3a352adaa099f7659f8cc,,,,,,,,,,,,,,,,,,,,PF,,,,,,,,1,1.10041,,,,,,,,,,,,,,,,,,,,,,,,,,,,5,-114,55,1,0,0,response7disk,4,72,19,-7,1,0,0,rectangle,19,-7,1,0,0,0,7,0,0.000525,19,-7,1,0,0,0,71,71,54,1,,,,,,,,,,,,,,,,,,,,,
,,,,,,,,,,,,,,,,,,,,,,,,,,,,,,,,,,,,,,,,,,,5f7b2ce6b2c8250797d6b54d,5ff3ba19cfa0552381150a9a,2021-01-05_03h00.37.353,Colour_Similarity_Experiment_v1,2020.1.2,Win32,60,5ff3a352adaa099f7659f8cc,,,,,,,,,,,,,,,,,,,,PF,,,,,,,,6,2.16654,,,,,,,,,,,,,,,,,,,,,,,,,,,,1,106,41,1,0,0,response1disk,4,73,-12,-10,1,0,0,rectangle,-12,-10,1,0,0,0,7,0,0.014285,-12,-10,1,0,0,0,72,72,139,1,,,,,,,,,,,,,,,,,,,,,
,,,,,,,,,,,,,,,,,,,,,,,,,,,,,,,,,,,,,,,,,,,5f7b2ce6b2c8250797d6b54d,5ff3ba19cfa0552381150a9a,2021-01-05_03h00.37.353,Colour_Similarity_Experiment_v1,2020.1.2,Win32,60,5ff3a352adaa099f7659f8cc,,,,,,,,,,,,,,,,,,,,PF,,,,,,,,3,2.666205,,,,,,,,,,,,,,,,,,,,,,,,,,,,5,-55,-142,1,0,0,response5disk,6,74,-14,12,1,0,0,rectangle,-14,12,1,0,0,0,0,0,0.000535,-14,12,1,0,0,0,73,73,103,1,,,,,,,,,,,,,,,,,,,,,
,,,,,,,,,,,,,,,,,,,,,,,,,,,,,,,,,,,,,,,,,,,5f7b2ce6b2c8250797d6b54d,5ff3ba19cfa0552381150a9a,2021-01-05_03h00.37.353,Colour_Similarity_Experiment_v1,2020.1.2,Win32,60,5ff3a352adaa099f7659f8cc,,,,,,,,,,,,,,,,,,,,PF,,,,,,,,4,3.30018,,,,,,,,,,,,,,,,,,,,,,,,,,,,7,49,-132,1,0,0,response3disk,4,75,-23,3,1,0,0,rectangle,-23,3,1,0,0,0,5,0,0.000575,-23,3,1,0,0,0,74,74,43,1,,,,,,,,,,,,,,,,,,,,,
,,,,,,,,,,,,,,,,,,,,,,,,,,,,,,,,,,,,,,,,,,,5f7b2ce6b2c8250797d6b54d,5ff3ba19cfa0552381150a9a,2021-01-05_03h00.37.353,Colour_Similarity_Experiment_v1,2020.1.2,Win32,60,5ff3a352adaa099f7659f8cc,,,,,,,,,,,,,,,,,,,,PF,,,,,,,,6,2.400445,,,,,,,,,,,,,,,,,,,,,,,,,,,,5,112,50,1,0,0,response1disk,7,76,-30,-15,1,0,0,rectangle,-30,-15,1,0,0,0,6,0,0.00055,-30,-15,1,0,0,0,75,75,146,1,,,,,,,,,,,,,,,,,,,,,
,,,,,,,,,,,,,,,,,,,,,,,,,,,,,,,,,,,,,,,,,,,5f7b2ce6b2c8250797d6b54d,5ff3ba19cfa0552381150a9a,2021-01-05_03h00.37.353,Colour_Similarity_Experiment_v1,2020.1.2,Win32,60,5ff3a352adaa099f7659f8cc,,,,,,,,,,,,,,,,,,,,PF,,,,,,,,3,3.89981,,,,,,,,,,,,,,,,,,,,,,,,,,,,3,-53,-132,1,0,0,response5disk,6,77,-2,3,1,0,0,rectangle,-2,3,1,0,0,0,3,0,0.00054,-2,3,1,0,0,0,76,76,47,1,,,,,,,,,,,,,,,,,,,,,
,,,,,,,,,,,,,,,,,,,,,,,,,,,,,,,,,,,,,,,,,,,5f7b2ce6b2c8250797d6b54d,5ff3ba19cfa0552381150a9a,2021-01-05_03h00.37.353,Colour_Similarity_Experiment_v1,2020.1.2,Win32,60,5ff3a352adaa099f7659f8cc,,,,,,,,,,,,,,,,,,,,FF,,,,,,,,7,2.348875,,,,,,,,,,,,,,,,,,,,,,,,,,,,1,51,132,1,0,0,response1disk,7,78,-3,5,1,0,0,rectangle,-3,5,1,0,0,0,7,0,0.000605,-3,5,1,0,0,0,77,77,137,1,,,,,,,,,,,,,,,,,,,,,
,,,,,,,,,,,,,,,,,,,,,,,,,,,,,,,,,,,,,,,,,,,5f7b2ce6b2c8250797d6b54d,5ff3ba19cfa0552381150a9a,2021-01-05_03h00.37.353,Colour_Similarity_Experiment_v1,2020.1.2,Win32,60,5ff3a352adaa099f7659f8cc,,,,,,,,,,,,,,,,,,,,FF,,,,,,,,2,3.79775,,,,,,,,,,,,,,,,,,,,,,,,,,,,5,-138,-41,1,0,0,response5disk,7,79,-7,3,1,0,0,rectangle,-7,3,1,0,0,0,7,0,0.000585,-7,3,1,0,0,0,78,78,7,1,,,,,,,,,,,,,,,,,,,,,
,,,,,,,,,,,,,,,,,,,,,,,,,,,,,,,,,,,,,,,,,,,5f7b2ce6b2c8250797d6b54d,5ff3ba19cfa0552381150a9a,2021-01-05_03h00.37.353,Colour_Similarity_Experiment_v1,2020.1.2,Win32,60,5ff3a352adaa099f7659f8cc,,,,,,,,,,,,,,,,,,,,PF,,,,,,,,5,1.415545,,,,,,,,,,,,,,,,,,,,,,,,,,,,1,109,-48,1,0,0,response3disk,5,80,-3,10,1,0,0,rectangle,-3,10,1,0,0,0,7,0,0.000595,-3,10,1,0,0,0,79,79,28,1,,,,,,,,,,,,,,,,,,,,,
,,,,,,,,,,,,,,,,,,,,,,,,,,,,,,,,,,,,,,,,,,,5f7b2ce6b2c8250797d6b54d,5ff3ba19cfa0552381150a9a,2021-01-05_03h00.37.353,Colour_Similarity_Experiment_v1,2020.1.2,Win32,60,5ff3a352adaa099f7659f8cc,,,,,,,,,,,,,,,,,,,,PF,,,,,,,,5,2.41627,,,,,,,,,,,,,,,,,,,,,,,,,,,,2,111,-48,1,0,0,response3disk,8,81,-18,-6,1,0,0,rectangle,-18,-6,1,0,0,0,1,0,0.00051,-18,-6,1,0,0,0,80,80,52,1,,,,,,,,,,,,,,,,,,,,,
,,,,,,,,,,,,,,,,,,,,,,,,,,,,,,,,,,,,,,,,,,,5f7b2ce6b2c8250797d6b54d,5ff3ba19cfa0552381150a9a,2021-01-05_03h00.37.353,Colour_Similarity_Experiment_v1,2020.1.2,Win32,60,5ff3a352adaa099f7659f8cc,,,,,,,,,,,,,,,,,,,,PF,,,,,,,,3,2.6333,,,,,,,,,,,,,,,,,,,,,,,,,,,,2,-54,-124,1,0,0,response5disk,3,82,-15,-1,1,0,0,rectangle,-15,-1,1,0,0,0,2,0,0.00059,-15,-1,1,0,0,0,81,81,69,1,,,,,,,,,,,,,,,,,,,,,
,,,,,,,,,,,,,,,,,,,,,,,,,,,,,,,,,,,,,,,,,,,5f7b2ce6b2c8250797d6b54d,5ff3ba19cfa0552381150a9a,2021-01-05_03h00.37.353,Colour_Similarity_Experiment_v1,2020.1.2,Win32,60,5ff3a352adaa099f7659f8cc,,,,,,,,,,,,,,,,,,,,PF,,,,,,,,6,7.35079,,,,,,,,,,,,,,,,,,,,,,,,,,,,1,130,57,1,0,0,response1disk,7,83,0,11,1,0,0,rectangle,0,11,1,0,0,0,4,0,0.00105,0,11,1,0,0,0,82,82,150,1,,,,,,,,,,,,,,,,,,,,,
,,,,,,,,,,,,,,,,,,,,,,,,,,,,,,,,,,,,,,,,,,,5f7b2ce6b2c8250797d6b54d,5ff3ba19cfa0552381150a9a,2021-01-05_03h00.37.353,Colour_Similarity_Experiment_v1,2020.1.2,Win32,60,5ff3a352adaa099f7659f8cc,,,,,,,,,,,,,,,,,,,,PF,,,,,,,,5,2.683575,,,,,,,,,,,,,,,,,,,,,,,,,,,,3,97,-26,1,0,0,response3disk,1,84,0,-19,1,0,0,rectangle,0,-19,1,0,0,0,7,0,0.00065,0,-19,1,0,0,0,83,83,96,1,,,,,,,,,,,,,,,,,,,,,
,,,,,,,,,,,,,,,,,,,,,,,,,,,,,,,,,,,,,,,,,,,5f7b2ce6b2c8250797d6b54d,5ff3ba19cfa0552381150a9a,2021-01-05_03h00.37.353,Colour_Similarity_Experiment_v1,2020.1.2,Win32,60,5ff3a352adaa099f7659f8cc,,,,,,,,,,,,,,,,,,,,FF,,,,,,,,5,2.46637,,,,,,,,,,,,,,,,,,,,,,,,,,,,3,114,-34,1,0,0,response3disk,1,85,8,-14,1,0,0,rectangle,8,-14,1,0,0,0,0,0,0.000565,8,-14,1,0,0,0,84,84,125,1,,,,,,,,,,,,,,,,,,,,,
,,,,,,,,,,,,,,,,,,,,,,,,,,,,,,,,,,,,,,,,,,,5f7b2ce6b2c8250797d6b54d,5ff3ba19cfa0552381150a9a,2021-01-05_03h00.37.353,Colour_Similarity_Experiment_v1,2020.1.2,Win32,60,5ff3a352adaa099f7659f8cc,,,,,,,,,,,,,,,,,,,,PF,,,,,,,,3,2.89268,,,,,,,,,,,,,,,,,,,,,,,,,,,,9,-60,-112,1,0,0,response5disk,7,86,2,0,1,0,0,rectangle,2,0,1,0,0,0,2,0,0.0006,2,0,1,0,0,0,85,85,121,1,,,,,,,,,,,,,,,,,,,,,
,,,,,,,,,,,,,,,,,,,,,,,,,,,,,,,,,,,,,,,,,,,5f7b2ce6b2c8250797d6b54d,5ff3ba19cfa0552381150a9a,2021-01-05_03h00.37.353,Colour_Similarity_Experiment_v1,2020.1.2,Win32,60,5ff3a352adaa099f7659f8cc,,,,,,,,,,,,,,,,,,,,PF,,,,,,,,3,2.200095,,,,,,,,,,,,,,,,,,,,,,,,,,,,8,-59,-110,1,0,0,response5disk,1,87,3,9,1,0,0,rectangle,3,9,1,0,0,0,4,0,0.000605,3,9,1,0,0,0,86,86,57,1,,,,,,,,,,,,,,,,,,,,,
,,,,,,,,,,,,,,,,,,,,,,,,,,,,,,,,,,,,,,,,,,,5f7b2ce6b2c8250797d6b54d,5ff3ba19cfa0552381150a9a,2021-01-05_03h00.37.353,Colour_Similarity_Experiment_v1,2020.1.2,Win32,60,5ff3a352adaa099f7659f8cc,,,,,,,,,,,,,,,,,,,,FF,,,,,,,,5,7.367145,,,,,,,,,,,,,,,,,,,,,,,,,,,,2,153,-60,1,0,0,response3disk,6,88,-21,6,1,0,0,rectangle,-21,6,1,0,0,0,4,0,0.001075,-21,6,1,0,0,0,87,87,40,1,,,,,,,,,,,,,,,,,,,,,
,,,,,,,,,,,,,,,,,,,,,,,,,,,,,,,,,,,,,,,,,,,5f7b2ce6b2c8250797d6b54d,5ff3ba19cfa0552381150a9a,2021-01-05_03h00.37.353,Colour_Similarity_Experiment_v1,2020.1.2,Win32,60,5ff3a352adaa099f7659f8cc,,,,,,,,,,,,,,,,,,,,PF,,,,,,,,4,2.59947,,,,,,,,,,,,,,,,,,,,,,,,,,,,9,35,-125,1,0,0,response3disk,3,89,4,3,1,0,0,rectangle,4,3,1,0,0,0,4,0,0.000745,4,3,1,0,0,0,88,88,119,1,,,,,,,,,,,,,,,,,,,,,
,,,,,,,,,,,,,,,,,,,,,,,,,,,,,,,,,,,,,,,,,,,5f7b2ce6b2c8250797d6b54d,5ff3ba19cfa0552381150a9a,2021-01-05_03h00.37.353,Colour_Similarity_Experiment_v1,2020.1.2,Win32,60,5ff3a352adaa099f7659f8cc,,,,,,,,,,,,,,,,,,,,PF,,,,,,,,7,3.249975,,,,,,,,,,,,,,,,,,,,,,,,,,,,5,55,117,1,0,0,response1disk,2,90,-2,12,1,0,0,rectangle,-2,12,1,0,0,0,3,0,0.000605,-2,12,1,0,0,0,89,89,129,1,,,,,,,,,,,,,,,,,,,,,
,,,,,,,,,,,,,,,,,,,,,,,,,,,,,,,,,,,,,,,,,,,5f7b2ce6b2c8250797d6b54d,5ff3ba19cfa0552381150a9a,2021-01-05_03h00.37.353,Colour_Similarity_Experiment_v1,2020.1.2,Win32,60,5ff3a352adaa099f7659f8cc,,,,,,,,,,,,,,,,,,,,FF,,,,,,,,6,2.165835,,,,,,,,,,,,,,,,,,,,,,,,,,,,6,118,45,1,0,0,response1disk,1,91,-4,1,1,0,0,rectangle,-4,1,1,0,0,0,3,0,0.00066,-4,1,1,0,0,0,90,90,5,1,,,,,,,,,,,,,,,,,,,,,
,,,,,,,,,,,,,,,,,,,,,,,,,,,,,,,,,,,,,,,,,,,5f7b2ce6b2c8250797d6b54d,5ff3ba19cfa0552381150a9a,2021-01-05_03h00.37.353,Colour_Similarity_Experiment_v1,2020.1.2,Win32,60,5ff3a352adaa099f7659f8cc,,,,,,,,,,,,,,,,,,,,PF,,,,,,,,3,2.050345,,,,,,,,,,,,,,,,,,,,,,,,,,,,8,-71,-116,1,0,0,response5disk,7,92,-10,-1,1,0,0,rectangle,-10,-1,1,0,0,0,0,0,0.00059,-10,-1,1,0,0,0,91,91,23,1,,,,,,,,,,,,,,,,,,,,,
,,,,,,,,,,,,,,,,,,,,,,,,,,,,,,,,,,,,,,,,,,,5f7b2ce6b2c8250797d6b54d,5ff3ba19cfa0552381150a9a,2021-01-05_03h00.37.353,Colour_Similarity_Experiment_v1,2020.1.2,Win32,60,5ff3a352adaa099f7659f8cc,,,,,,,,,,,,,,,,,,,,PF,,,,,,,,3,5.90004,,,,,,,,,,,,,,,,,,,,,,,,,,,,3,-52,-144,1,0,0,response5disk,5,93,-3,-1,1,0,0,rectangle,-3,-1,1,0,0,0,3,0,0.000575,-3,-1,1,0,0,0,92,92,66,1,,,,,,,,,,,,,,,,,,,,,
,,,,,,,,,,,,,,,,,,,,,,,,,,,,,,,,,,,,,,,,,,,5f7b2ce6b2c8250797d6b54d,5ff3ba19cfa0552381150a9a,2021-01-05_03h00.37.353,Colour_Similarity_Experiment_v1,2020.1.2,Win32,60,5ff3a352adaa099f7659f8cc,,,,,,,,,,,,,,,,,,,,PF,,,,,,,,2,2.1333,,,,,,,,,,,,,,,,,,,,,,,,,,,,1,-133,-52,1,0,0,response5disk,2,94,4,-8,1,0,0,rectangle,4,-8,1,0,0,0,3,0,0.00058,4,-8,1,0,0,0,93,93,24,1,,,,,,,,,,,,,,,,,,,,,
,,,,,,,,,,,,,,,,,,,,,,,,,,,,,,,,,,,,,,,,,,,5f7b2ce6b2c8250797d6b54d,5ff3ba19cfa0552381150a9a,2021-01-05_03h00.37.353,Colour_Similarity_Experiment_v1,2020.1.2,Win32,60,5ff3a352adaa099f7659f8cc,,,,,,,,,,,,,,,,,,,,FF,,,,,,,,0,1.900035,,,,,,,,,,,,,,,,,,,,,,,,,,,,5,-49,127,1,0,0,response7disk,5,95,3,-12,1,0,0,rectangle,3,-12,1,0,0,0,5,0,0.00061,3,-12,1,0,0,0,94,94,19,1,,,,,,,,,,,,,,,,,,,,,
,,,,,,,,,,,,,,,,,,,,,,,,,,,,,,,,,,,,,,,,,,,5f7b2ce6b2c8250797d6b54d,5ff3ba19cfa0552381150a9a,2021-01-05_03h00.37.353,Colour_Similarity_Experiment_v1,2020.1.2,Win32,60,5ff3a352adaa099f7659f8cc,,,,,,,,,,,,,,,,,,,,PF,,,,,,,,1,1.11625,,,,,,,,,,,,,,,,,,,,,,,,,,,,4,-122,37,1,0,0,response7disk,5,96,9,-2,1,0,0,rectangle,9,-2,1,0,0,0,7,0,0.000615,9,-2,1,0,0,0,95,95,49,1,,,,,,,,,,,,,,,,,,,,,
,,,,,,,,,,,,,,,,,,,,,,,,,,,,,,,,,,,,,,,,,,,5f7b2ce6b2c8250797d6b54d,5ff3ba19cfa0552381150a9a,2021-01-05_03h00.37.353,Colour_Similarity_Experiment_v1,2020.1.2,Win32,60,5ff3a352adaa099f7659f8cc,,,,,,,,,,,,,,,,,,,,PF,,,,,,,,5,1.48423,,,,,,,,,,,,,,,,,,,,,,,,,,,,4,106,-36,1,0,0,response3disk,1,97,4,16,1,0,0,rectangle,4,16,1,0,0,0,2,0,0.00067,4,16,1,0,0,0,96,96,115,1,,,,,,,,,,,,,,,,,,,,,
,,,,,,,,,,,,,,,,,,,,,,,,,,,,,,,,,,,,,,,,,,,5f7b2ce6b2c8250797d6b54d,5ff3ba19cfa0552381150a9a,2021-01-05_03h00.37.353,Colour_Similarity_Experiment_v1,2020.1.2,Win32,60,5ff3a352adaa099f7659f8cc,,,,,,,,,,,,,,,,,,,,PF,,,,,,,,4,2.31624,,,,,,,,,,,,,,,,,,,,,,,,,,,,5,32,-96,1,0,0,response3disk,8,98,-5,12,1,0,0,rectangle,-5,12,1,0,0,0,6,0,0.015515,-5,12,1,0,0,0,97,97,149,1,,,,,,,,,,,,,,,,,,,,,
,,,,,,,,,,,,,,,,,,,,,,,,,,,,,,,,,,,,,,,,,,,5f7b2ce6b2c8250797d6b54d,5ff3ba19cfa0552381150a9a,2021-01-05_03h00.37.353,Colour_Similarity_Experiment_v1,2020.1.2,Win32,60,5ff3a352adaa099f7659f8cc,,,,,,,,,,,,,,,,,,,,PF,,,,,,,,6,1.68341,,,,,,,,,,,,,,,,,,,,,,,,,,,,8,91,53,1,0,0,response1disk,2,99,-11,-6,1,0,0,rectangle,-11,-6,1,0,0,0,5,0,0.000575,-11,-6,1,0,0,0,98,98,83,1,,,,,,,,,,,,,,,,,,,,,
,,,,,,,,,,,,,,,,,,,,,,,,,,,,,,,,,,,,,,,,,,,5f7b2ce6b2c8250797d6b54d,5ff3ba19cfa0552381150a9a,2021-01-05_03h00.37.353,Colour_Similarity_Experiment_v1,2020.1.2,Win32,60,5ff3a352adaa099f7659f8cc,,,,,,,,,,,,,,,,,,,,FF,,,,,,,,0,1.60091,,,,,,,,,,,,,,,,,,,,,,,,,,,,1,-53,109,1,0,0,response7disk,1,100,1,4,1,0,0,rectangle,1,4,1,0,0,0,6,0,0.00056,1,4,1,0,0,0,99,99,151,1,,,,,,,,,,,,,,,,,,,,,
,,,,,,,,,,,,,,,,,,,,,,,,,,,,,,,,,,,,,,,,,,,5f7b2ce6b2c8250797d6b54d,5ff3ba19cfa0552381150a9a,2021-01-05_03h00.37.353,Colour_Similarity_Experiment_v1,2020.1.2,Win32,60,5ff3a352adaa099f7659f8cc,,,,,,,,,,,,,,,,,,,,FF,,,,,,,,3,1.516825,,,,,,,,,,,,,,,,,,,,,,,,,,,,6,-55,-116,1,0,0,response5disk,9,101,2,-6,1,0,0,rectangle,68,121,1,0,0,7,7,1,2.98444,11,14,1,0,0,0,100,100,160,1,response1disk_3,rectangle,,,,,,,,,,,,,,,,,,,
,,,,,,,,,,,,,,,,,,,,,,,,,,,,,,,,,,,,,,,,,,,5f7b2ce6b2c8250797d6b54d,5ff3ba19cfa0552381150a9a,2021-01-05_03h00.37.353,Colour_Similarity_Experiment_v1,2020.1.2,Win32,60,5ff3a352adaa099f7659f8cc,,,,,,,,,,,,,,,,,,,,PF,,,,,,,,1,1.90037,,,,,,,,,,,,,,,,,,,,,,,,,,,,8,-118,38,1,0,0,response7disk,9,102,4,-15,1,0,0,rectangle,4,-15,1,0,0,7,7,0,0.000585,4,-15,1,0,0,0,101,101,42,1,,,,,,,,,,,,,,,,,,,,,
,,,,,,,,,,,,,,,,,,,,,,,,,,,,,,,,,,,,,,,,,,,5f7b2ce6b2c8250797d6b54d,5ff3ba19cfa0552381150a9a,2021-01-05_03h00.37.353,Colour_Similarity_Experiment_v1,2020.1.2,Win32,60,5ff3a352adaa099f7659f8cc,,,,,,,,,,,,,,,,,,,,PF,,,,,,,,6,2.616405,,,,,,,,,,,,,,,,,,,,,,,,,,,,6,124,77,1,0,0,response1disk,1,103,13,3,1,0,0,rectangle,13,3,1,0,0,7,0,0,0.000535,13,3,1,0,0,0,102,102,46,1,,,,,,,,,,,,,,,,,,,,,
,,,,,,,,,,,,,,,,,,,,,,,,,,,,,,,,,,,,,,,,,,,5f7b2ce6b2c8250797d6b54d,5ff3ba19cfa0552381150a9a,2021-01-05_03h00.37.353,Colour_Similarity_Experiment_v1,2020.1.2,Win32,60,5ff3a352adaa099f7659f8cc,,,,,,,,,,,,,,,,,,,,FF,,,,,,,,2,2.566795,,,,,,,,,,,,,,,,,,,,,,,,,,,,9,-117,-39,1,0,0,response5disk,1,104,29,5,1,0,0,rectangle,29,5,1,0,0,7,5,0,0.000545,29,5,1,0,0,0,103,103,111,1,,,,,,,,,,,,,,,,,,,,,
,,,,,,,,,,,,,,,,,,,,,,,,,,,,,,,,,,,,,,,,,,,5f7b2ce6b2c8250797d6b54d,5ff3ba19cfa0552381150a9a,2021-01-05_03h00.37.353,Colour_Similarity_Experiment_v1,2020.1.2,Win32,60,5ff3a352adaa099f7659f8cc,,,,,,,,,,,,,,,,,,,,PF,,,,,,,,0,5.26745,,,,,,,,,,,,,,,,,,,,,,,,,,,,4,-38,143,1,0,0,response7disk,3,105,0,18,1,0,0,rectangle,0,18,1,0,0,7,2,0,0.001095,0,18,1,0,0,0,104,104,89,1,,,,,,,,,,,,,,,,,,,,,
,,,,,,,,,,,,,,,,,,,,,,,,,,,,,,,,,,,,,,,,,,,5f7b2ce6b2c8250797d6b54d,5ff3ba19cfa0552381150a9a,2021-01-05_03h00.37.353,Colour_Similarity_Experiment_v1,2020.1.2,Win32,60,5ff3a352adaa099f7659f8cc,,,,,,,,,,,,,,,,,,,,FF,,,,,,,,1,1.13316,,,,,,,,,,,,,,,,,,,,,,,,,,,,5,-135,35,1,0,0,response7disk,4,106,-12,-3,1,0,0,rectangle,-12,-3,1,0,0,7,5,0,0.00066,-12,-3,1,0,0,0,105,105,8,1,,,,,,,,,,,,,,,,,,,,,
,,,,,,,,,,,,,,,,,,,,,,,,,,,,,,,,,,,,,,,,,,,5f7b2ce6b2c8250797d6b54d,5ff3ba19cfa0552381150a9a,2021-01-05_03h00.37.353,Colour_Similarity_Experiment_v1,2020.1.2,Win32,60,5ff3a352adaa099f7659f8cc,,,,,,,,,,,,,,,,,,,,FF,,,,,,,,7,2.81625,,,,,,,,,,,,,,,,,,,,,,,,,,,,3,57,88,1,0,0,response1disk,9,107,10,-3,1,0,0,rectangle,10,-3,1,0,0,7,1,0,0.00127,10,-3,1,0,0,0,106,106,143,1,,,,,,,,,,,,,,,,,,,,,
,,,,,,,,,,,,,,,,,,,,,,,,,,,,,,,,,,,,,,,,,,,5f7b2ce6b2c8250797d6b54d,5ff3ba19cfa0552381150a9a,2021-01-05_03h00.37.353,Colour_Similarity_Experiment_v1,2020.1.2,Win32,60,5ff3a352adaa099f7659f8cc,,,,,,,,,,,,,,,,,,,,PF,,,,,,,,6,1.3827,,,,,,,,,,,,,,,,,,,,,,,,,,,,8,75,39,1,0,0,response1disk,3,108,19,-7,1,0,0,rectangle,19,-7,1,0,0,7,6,0,0.000585,19,-7,1,0,0,0,107,107,71,1,,,,,,,,,,,,,,,,,,,,,
,,,,,,,,,,,,,,,,,,,,,,,,,,,,,,,,,,,,,,,,,,,5f7b2ce6b2c8250797d6b54d,5ff3ba19cfa0552381150a9a,2021-01-05_03h00.37.353,Colour_Similarity_Experiment_v1,2020.1.2,Win32,60,5ff3a352adaa099f7659f8cc,,,,,,,,,,,,,,,,,,,,PF,,,,,,,,4,2.78412,,,,,,,,,,,,,,,,,,,,,,,,,,,,9,29,-77,1,0,0,response3disk,5,109,0,16,1,0,0,rectangle,0,16,1,0,0,7,5,0,0.00067,0,16,1,0,0,0,108,108,134,1,,,,,,,,,,,,,,,,,,,,,
,,,,,,,,,,,,,,,,,,,,,,,,,,,,,,,,,,,,,,,,,,,5f7b2ce6b2c8250797d6b54d,5ff3ba19cfa0552381150a9a,2021-01-05_03h00.37.353,Colour_Similarity_Experiment_v1,2020.1.2,Win32,60,5ff3a352adaa099f7659f8cc,,,,,,,,,,,,,,,,,,,,PF,,,,,,,,3,1.266525,,,,,,,,,,,,,,,,,,,,,,,,,,,,5,-33,-88,1,0,0,response5disk,3,110,-8,5,1,0,0,rectangle,-8,5,1,0,0,7,5,0,0.000605,-8,5,1,0,0,0,109,109,109,1,,,,,,,,,,,,,,,,,,,,,
,,,,,,,,,,,,,,,,,,,,,,,,,,,,,,,,,,,,,,,,,,,5f7b2ce6b2c8250797d6b54d,5ff3ba19cfa0552381150a9a,2021-01-05_03h00.37.353,Colour_Similarity_Experiment_v1,2020.1.2,Win32,60,5ff3a352adaa099f7659f8cc,,,,,,,,,,,,,,,,,,,,PF,,,,,,,,6,2.449765,,,,,,,,,,,,,,,,,,,,,,,,,,,,5,84,46,1,0,0,response1disk,9,111,5,-13,1,0,0,rectangle,50,-112,1,0,0,4,4,1,1.499395,-13,-1,1,0,0,0,110,110,136,1,response3disk_3,rectangle,,,,,,,,,,,,,,,,,,,
,,,,,,,,,,,,,,,,,,,,,,,,,,,,,,,,,,,,,,,,,,,5f7b2ce6b2c8250797d6b54d,5ff3ba19cfa0552381150a9a,2021-01-05_03h00.37.353,Colour_Similarity_Experiment_v1,2020.1.2,Win32,60,5ff3a352adaa099f7659f8cc,,,,,,,,,,,,,,,,,,,,FF,,,,,,,,3,2.39971,,,,,,,,,,,,,,,,,,,,,,,,,,,,6,-40,-96,1,0,0,response5disk,8,112,-3,6,1,0,0,rectangle,-3,6,1,0,0,4,6,0,0.000575,-3,6,1,0,0,0,111,111,133,1,,,,,,,,,,,,,,,,,,,,,
,,,,,,,,,,,,,,,,,,,,,,,,,,,,,,,,,,,,,,,,,,,5f7b2ce6b2c8250797d6b54d,5ff3ba19cfa0552381150a9a,2021-01-05_03h00.37.353,Colour_Similarity_Experiment_v1,2020.1.2,Win32,60,5ff3a352adaa099f7659f8cc,,,,,,,,,,,,,,,,,,,,PF,,,,,,,,1,1.266845,,,,,,,,,,,,,,,,,,,,,,,,,,,,9,-95,48,1,0,0,response7disk,8,113,0,2,1,0,0,rectangle,0,2,1,0,0,4,5,0,0.00057,0,2,1,0,0,0,112,112,67,1,,,,,,,,,,,,,,,,,,,,,
,,,,,,,,,,,,,,,,,,,,,,,,,,,,,,,,,,,,,,,,,,,5f7b2ce6b2c8250797d6b54d,5ff3ba19cfa0552381150a9a,2021-01-05_03h00.37.353,Colour_Similarity_Experiment_v1,2020.1.2,Win32,60,5ff3a352adaa099f7659f8cc,,,,,,,,,,,,,,,,,,,,FF,,,,,,,,4,2.149475,,,,,,,,,,,,,,,,,,,,,,,,,,,,9,33,-90,1,0,0,response3disk,5,114,-9,-11,1,0,0,rectangle,-9,-11,1,0,0,4,6,0,0.00057,-9,-11,1,0,0,0,113,113,128,1,,,,,,,,,,,,,,,,,,,,,
,,,,,,,,,,,,,,,,,,,,,,,,,,,,,,,,,,,,,,,,,,,5f7b2ce6b2c8250797d6b54d,5ff3ba19cfa0552381150a9a,2021-01-05_03h00.37.353,Colour_Similarity_Experiment_v1,2020.1.2,Win32,60,5ff3a352adaa099f7659f8cc,,,,,,,,,,,,,,,,,,,,FF,,,,,,,,5,1.532805,,,,,,,,,,,,,,,,,,,,,,,,,,,,1,90,-33,1,0,0,response3disk,5,115,-24,11,1,0,0,rectangle,-24,11,1,0,0,4,0,0,0.000595,-24,11,1,0,0,0,114,114,82,1,,,,,,,,,,,,,,,,,,,,,
,,,,,,,,,,,,,,,,,,,,,,,,,,,,,,,,,,,,,,,,,,,5f7b2ce6b2c8250797d6b54d,5ff3ba19cfa0552381150a9a,2021-01-05_03h00.37.353,Colour_Similarity_Experiment_v1,2020.1.2,Win32,60,5ff3a352adaa099f7659f8cc,,,,,,,,,,,,,,,,,,,,PF,,,,,,,,3,1.98309,,,,,,,,,,,,,,,,,,,,,,,,,,,,8,-42,-89,1,0,0,response5disk,6,116,-15,4,1,0,0,rectangle,-51,137,1,0,0,0,0,1,2.18324,-3,-5,1,0,0,0,115,115,161,1,response7disk_3,rectangle,,,,,,,,,,,,,,,,,,,
,,,,,,,,,,,,,,,,,,,,,,,,,,,,,,,,,,,,,,,,,,,5f7b2ce6b2c8250797d6b54d,5ff3ba19cfa0552381150a9a,2021-01-05_03h00.37.353,Colour_Similarity_Experiment_v1,2020.1.2,Win32,60,5ff3a352adaa099f7659f8cc,,,,,,,,,,,,,,,,,,,,FF,,,,,,,,6,2.23329,,,,,,,,,,,,,,,,,,,,,,,,,,,,8,87,59,1,0,0,response1disk,2,117,-6,7,1,0,0,rectangle,-6,7,1,0,0,0,7,0,0.00059,-6,7,1,0,0,0,116,116,22,1,,,,,,,,,,,,,,,,,,,,,
,,,,,,,,,,,,,,,,,,,,,,,,,,,,,,,,,,,,,,,,,,,5f7b2ce6b2c8250797d6b54d,5ff3ba19cfa0552381150a9a,2021-01-05_03h00.37.353,Colour_Similarity_Experiment_v1,2020.1.2,Win32,60,5ff3a352adaa099f7659f8cc,,,,,,,,,,,,,,,,,,,,PF,,,,,,,,3,2.91638,,,,,,,,,,,,,,,,,,,,,,,,,,,,9,-35,-95,1,0,0,response5disk,6,118,13,9,1,0,0,rectangle,13,9,1,0,0,0,2,0,0.00115,13,9,1,0,0,0,117,117,148,1,,,,,,,,,,,,,,,,,,,,,
,,,,,,,,,,,,,,,,,,,,,,,,,,,,,,,,,,,,,,,,,,,5f7b2ce6b2c8250797d6b54d,5ff3ba19cfa0552381150a9a,2021-01-05_03h00.37.353,Colour_Similarity_Experiment_v1,2020.1.2,Win32,60,5ff3a352adaa099f7659f8cc,,,,,,,,,,,,,,,,,,,,FF,,,,,,,,5,2.21632,,,,,,,,,,,,,,,,,,,,,,,,,,,,2,118,-41,1,0,0,response3disk,8,119,-36,-5,1,0,0,rectangle,-36,-5,1,0,0,0,5,0,0.0006,-36,-5,1,0,0,0,118,118,62,1,,,,,,,,,,,,,,,,,,,,,
,,,,,,,,,,,,,,,,,,,,,,,,,,,,,,,,,,,,,,,,,,,5f7b2ce6b2c8250797d6b54d,5ff3ba19cfa0552381150a9a,2021-01-05_03h00.37.353,Colour_Similarity_Experiment_v1,2020.1.2,Win32,60,5ff3a352adaa099f7659f8cc,,,,,,,,,,,,,,,,,,,,PF,,,,,,,,6,2.399615,,,,,,,,,,,,,,,,,,,,,,,,,,,,4,90,55,1,0,0,response1disk,8,120,-28,-2,1,0,0,rectangle,-28,-2,1,0,0,0,0,0,0.00058,-28,-2,1,0,0,0,119,119,124,1,,,,,,,,,,,,,,,,,,,,,
,,,,,,,,,,,,,,,,,,,,,,,,,,,,,,,,,,,,,,,,,,,5f7b2ce6b2c8250797d6b54d,5ff3ba19cfa0552381150a9a,2021-01-05_03h00.37.353,Colour_Similarity_Experiment_v1,2020.1.2,Win32,60,5ff3a352adaa099f7659f8cc,,,,,,,,,,,,,,,,,,,,FF,,,,,,,,7,3.70027,,,,,,,,,,,,,,,,,,,,,,,,,,,,4,45,102,1,0,0,response1disk,1,121,2,11,1,0,0,rectangle,2,11,1,0,0,0,3,0,0.00053,2,11,1,0,0,0,120,120,102,1,,,,,,,,,,,,,,,,,,,,,
,,,,,,,,,,,,,,,,,,,,,,,,,,,,,,,,,,,,,,,,,,,5f7b2ce6b2c8250797d6b54d,5ff3ba19cfa0552381150a9a,2021-01-05_03h00.37.353,Colour_Similarity_Experiment_v1,2020.1.2,Win32,60,5ff3a352adaa099f7659f8cc,,,,,,,,,,,,,,,,,,,,FF,,,,,,,,1,5.06654,,,,,,,,,,,,,,,,,,,,,,,,,,,,6,-112,56,1,0,0,response7disk,7,122,-3,-8,1,0,0,rectangle,-3,-8,1,0,0,0,2,0,0.00054,-3,-8,1,0,0,0,121,121,18,1,,,,,,,,,,,,,,,,,,,,,
,,,,,,,,,,,,,,,,,,,,,,,,,,,,,,,,,,,,,,,,,,,5f7b2ce6b2c8250797d6b54d,5ff3ba19cfa0552381150a9a,2021-01-05_03h00.37.353,Colour_Similarity_Experiment_v1,2020.1.2,Win32,60,5ff3a352adaa099f7659f8cc,,,,,,,,,,,,,,,,,,,,FF,,,,,,,,3,2.083145,,,,,,,,,,,,,,,,,,,,,,,,,,,,3,-35,-109,1,0,0,response5disk,6,123,-11,-3,1,0,0,rectangle,-11,-3,1,0,0,0,4,0,0.000555,-11,-3,1,0,0,0,122,122,95,1,,,,,,,,,,,,,,,,,,,,,
,,,,,,,,,,,,,,,,,,,,,,,,,,,,,,,,,,,,,,,,,,,5f7b2ce6b2c8250797d6b54d,5ff3ba19cfa0552381150a9a,2021-01-05_03h00.37.353,Colour_Similarity_Experiment_v1,2020.1.2,Win32,60,5ff3a352adaa099f7659f8cc,,,,,,,,,,,,,,,,,,,,FF,,,,,,,,1,1.73316,,,,,,,,,,,,,,,,,,,,,,,,,,,,4,-112,63,1,0,0,response7disk,3,124,-1,10,1,0,0,rectangle,-1,10,1,0,0,0,0,0,0.00053,-1,10,1,0,0,0,123,123,77,1,,,,,,,,,,,,,,,,,,,,,
,,,,,,,,,,,,,,,,,,,,,,,,,,,,,,,,,,,,,,,,,,,5f7b2ce6b2c8250797d6b54d,5ff3ba19cfa0552381150a9a,2021-01-05_03h00.37.353,Colour_Similarity_Experiment_v1,2020.1.2,Win32,60,5ff3a352adaa099f7659f8cc,,,,,,,,,,,,,,,,,,,,PF,,,,,,,,0,1.499435,,,,,,,,,,,,,,,,,,,,,,,,,,,,5,-58,156,1,0,0,response7disk,5,125,4,3,1,0,0,rectangle,4,3,1,0,0,0,5,0,0.00053,4,3,1,0,0,0,124,124,94,1,,,,,,,,,,,,,,,,,,,,,
,,,,,,,,,,,,,,,,,,,,,,,,,,,,,,,,,,,,,,,,,,,5f7b2ce6b2c8250797d6b54d,5ff3ba19cfa0552381150a9a,2021-01-05_03h00.37.353,Colour_Similarity_Experiment_v1,2020.1.2,Win32,60,5ff3a352adaa099f7659f8cc,,,,,,,,,,,,,,,,,,,,FF,,,,,,,,4,1.75015,,,,,,,,,,,,,,,,,,,,,,,,,,,,5,39,-82,1,0,0,response3disk,2,126,-3,5,1,0,0,rectangle,126,69,1,0,0,6,6,1,1.833455,-4,-8,1,0,0,0,125,125,55,1,response1disk_3,rectangle,,,,,,,,,,,,,,,,,,,
,,,,,,,,,,,,,,,,,,,,,,,,,,,,,,,,,,,,,,,,,,,5f7b2ce6b2c8250797d6b54d,5ff3ba19cfa0552381150a9a,2021-01-05_03h00.37.353,Colour_Similarity_Experiment_v1,2020.1.2,Win32,60,5ff3a352adaa099f7659f8cc,,,,,,,,,,,,,,,,,,,,FF,,,,,,,,6,2.08293,,,,,,,,,,,,,,,,,,,,,,,,,,,,9,123,53,1,0,0,response1disk,4,127,-11,11,1,0,0,rectangle,-11,11,1,0,0,6,4,0,0.00056,-11,11,1,0,0,0,126,126,60,1,,,,,,,,,,,,,,,,,,,,,
,,,,,,,,,,,,,,,,,,,,,,,,,,,,,,,,,,,,,,,,,,,5f7b2ce6b2c8250797d6b54d,5ff3ba19cfa0552381150a9a,2021-01-05_03h00.37.353,Colour_Similarity_Experiment_v1,2020.1.2,Win32,60,5ff3a352adaa099f7659f8cc,,,,,,,,,,,,,,,,,,,,FF,,,,,,,,5,1.833335,,,,,,,,,,,,,,,,,,,,,,,,,,,,1,118,-38,1,0,0,response3disk,6,128,19,-17,1,0,0,rectangle,19,-17,1,0,0,6,6,0,0.00054,19,-17,1,0,0,0,127,127,58,1,,,,,,,,,,,,,,,,,,,,,
,,,,,,,,,,,,,,,,,,,,,,,,,,,,,,,,,,,,,,,,,,,5f7b2ce6b2c8250797d6b54d,5ff3ba19cfa0552381150a9a,2021-01-05_03h00.37.353,Colour_Similarity_Experiment_v1,2020.1.2,Win32,60,5ff3a352adaa099f7659f8cc,,,,,,,,,,,,,,,,,,,,FF,,,,,,,,2,1.99984,,,,,,,,,,,,,,,,,,,,,,,,,,,,1,-96,-34,1,0,0,response5disk,2,129,-10,3,1,0,0,rectangle,-10,3,1,0,0,6,3,0,0.00075,-10,3,1,0,0,0,128,128,2,1,,,,,,,,,,,,,,,,,,,,,
,,,,,,,,,,,,,,,,,,,,,,,,,,,,,,,,,,,,,,,,,,,5f7b2ce6b2c8250797d6b54d,5ff3ba19cfa0552381150a9a,2021-01-05_03h00.37.353,Colour_Similarity_Experiment_v1,2020.1.2,Win32,60,5ff3a352adaa099f7659f8cc,,,,,,,,,,,,,,,,,,,,PF,,,,,,,,2,1.68296,,,,,,,,,,,,,,,,,,,,,,,,,,,,2,-99,-40,1,0,0,response5disk,1,130,-10,-1,1,0,0,rectangle,-10,-1,1,0,0,6,2,0,0.00056,-10,-1,1,0,0,0,129,129,9,1,,,,,,,,,,,,,,,,,,,,,
,,,,,,,,,,,,,,,,,,,,,,,,,,,,,,,,,,,,,,,,,,,5f7b2ce6b2c8250797d6b54d,5ff3ba19cfa0552381150a9a,2021-01-05_03h00.37.353,Colour_Similarity_Experiment_v1,2020.1.2,Win32,60,5ff3a352adaa099f7659f8cc,,,,,,,,,,,,,,,,,,,,PF,,,,,,,,0,1.4825,,,,,,,,,,,,,,,,,,,,,,,,,,,,1,-64,116,1,0,0,response7disk,1,131,-1,8,1,0,0,rectangle,-54,111,1,0,0,0,0,1,1.85007,0,4,1,0,0,0,130,130,76,1,response7disk_3,rectangle,,,,,,,,,,,,,,,,,,,
,,,,,,,,,,,,,,,,,,,,,,,,,,,,,,,,,,,,,,,,,,,5f7b2ce6b2c8250797d6b54d,5ff3ba19cfa0552381150a9a,2021-01-05_03h00.37.353,Colour_Similarity_Experiment_v1,2020.1.2,Win32,60,5ff3a352adaa099f7659f8cc,,,,,,,,,,,,,,,,,,,,FF,,,,,,,,1,1.16663,,,,,,,,,,,,,,,,,,,,,,,,,,,,4,-87,57,1,0,0,response7disk,5,132,-3,10,1,0,0,rectangle,-3,10,1,0,0,0,3,0,0.000565,-3,10,1,0,0,0,131,131,116,1,,,,,,,,,,,,,,,,,,,,,
,,,,,,,,,,,,,,,,,,,,,,,,,,,,,,,,,,,,,,,,,,,5f7b2ce6b2c8250797d6b54d,5ff3ba19cfa0552381150a9a,2021-01-05_03h00.37.353,Colour_Similarity_Experiment_v1,2020.1.2,Win32,60,5ff3a352adaa099f7659f8cc,,,,,,,,,,,,,,,,,,,,FF,,,,,,,,1,0.96593,,,,,,,,,,,,,,,,,,,,,,,,,,,,9,-112,63,1,0,0,response7disk,8,133,16,7,1,0,0,rectangle,16,7,1,0,0,0,4,0,0.00058,16,7,1,0,0,0,132,132,6,1,,,,,,,,,,,,,,,,,,,,,
,,,,,,,,,,,,,,,,,,,,,,,,,,,,,,,,,,,,,,,,,,,5f7b2ce6b2c8250797d6b54d,5ff3ba19cfa0552381150a9a,2021-01-05_03h00.37.353,Colour_Similarity_Experiment_v1,2020.1.2,Win32,60,5ff3a352adaa099f7659f8cc,,,,,,,,,,,,,,,,,,,,PF,,,,,,,,3,1.90007,,,,,,,,,,,,,,,,,,,,,,,,,,,,8,-46,-81,1,0,0,response5disk,5,134,-10,10,1,0,0,rectangle,-10,10,1,0,0,0,3,0,0.00058,-10,10,1,0,0,0,133,133,98,1,,,,,,,,,,,,,,,,,,,,,
,,,,,,,,,,,,,,,,,,,,,,,,,,,,,,,,,,,,,,,,,,,5f7b2ce6b2c8250797d6b54d,5ff3ba19cfa0552381150a9a,2021-01-05_03h00.37.353,Colour_Similarity_Experiment_v1,2020.1.2,Win32,60,5ff3a352adaa099f7659f8cc,,,,,,,,,,,,,,,,,,,,PF,,,,,,,,6,2.866395,,,,,,,,,,,,,,,,,,,,,,,,,,,,3,105,37,1,0,0,response1disk,9,135,5,-4,1,0,0,rectangle,5,-4,1,0,0,0,2,0,0.00062,5,-4,1,0,0,0,134,134,79,1,,,,,,,,,,,,,,,,,,,,,
,,,,,,,,,,,,,,,,,,,,,,,,,,,,,,,,,,,,,,,,,,,5f7b2ce6b2c8250797d6b54d,5ff3ba19cfa0552381150a9a,2021-01-05_03h00.37.353,Colour_Similarity_Experiment_v1,2020.1.2,Win32,60,5ff3a352adaa099f7659f8cc,,,,,,,,,,,,,,,,,,,,FF,,,,,,,,5,3.03261,,,,,,,,,,,,,,,,,,,,,,,,,,,,7,71,-41,1,0,0,response3disk,9,136,0,12,1,0,0,rectangle,0,12,1,0,0,0,5,0,0.0006,0,12,1,0,0,0,135,135,155,1,,,,,,,,,,,,,,,,,,,,,
,,,,,,,,,,,,,,,,,,,,,,,,,,,,,,,,,,,,,,,,,,,5f7b2ce6b2c8250797d6b54d,5ff3ba19cfa0552381150a9a,2021-01-05_03h00.37.353,Colour_Similarity_Experiment_v1,2020.1.2,Win32,60,5ff3a352adaa099f7659f8cc,,,,,,,,,,,,,,,,,,,,PF,,,,,,,,7,1.900295,,,,,,,,,,,,,,,,,,,,,,,,,,,,4,36,104,1,0,0,response1disk,7,137,8,8,1,0,0,rectangle,8,8,1,0,0,0,3,0,0.000505,8,8,1,0,0,0,136,136,38,1,,,,,,,,,,,,,,,,,,,,,
,,,,,,,,,,,,,,,,,,,,,,,,,,,,,,,,,,,,,,,,,,,5f7b2ce6b2c8250797d6b54d,5ff3ba19cfa0552381150a9a,2021-01-05_03h00.37.353,Colour_Similarity_Experiment_v1,2020.1.2,Win32,60,5ff3a352adaa099f7659f8cc,,,,,,,,,,,,,,,,,,,,PF,,,,,,,,7,1.53295,,,,,,,,,,,,,,,,,,,,,,,,,,,,7,45,94,1,0,0,response1disk,1,138,4,-4,1,0,0,rectangle,4,-4,1,0,0,0,0,0,0.00059,4,-4,1,0,0,0,137,137,53,1,,,,,,,,,,,,,,,,,,,,,
,,,,,,,,,,,,,,,,,,,,,,,,,,,,,,,,,,,,,,,,,,,5f7b2ce6b2c8250797d6b54d,5ff3ba19cfa0552381150a9a,2021-01-05_03h00.37.353,Colour_Similarity_Experiment_v1,2020.1.2,Win32,60,5ff3a352adaa099f7659f8cc,,,,,,,,,,,,,,,,,,,,FF,,,,,,,,4,2.666965,,,,,,,,,,,,,,,,,,,,,,,,,,,,8,38,-97,1,0,0,response3disk,5,139,-3,6,1,0,0,rectangle,-3,6,1,0,0,0,0,0,0.000595,-3,6,1,0,0,0,138,138,152,1,,,,,,,,,,,,,,,,,,,,,
,,,,,,,,,,,,,,,,,,,,,,,,,,,,,,,,,,,,,,,,,,,5f7b2ce6b2c8250797d6b54d,5ff3ba19cfa0552381150a9a,2021-01-05_03h00.37.353,Colour_Similarity_Experiment_v1,2020.1.2,Win32,60,5ff3a352adaa099f7659f8cc,,,,,,,,,,,,,,,,,,,,FF,,,,,,,,0,1.433585,,,,,,,,,,,,,,,,,,,,,,,,,,,,4,-60,119,1,0,0,response7disk,4,140,-10,6,1,0,0,rectangle,-10,6,1,0,0,0,5,0,0.00059,-10,6,1,0,0,0,139,139,84,1,,,,,,,,,,,,,,,,,,,,,
,,,,,,,,,,,,,,,,,,,,,,,,,,,,,,,,,,,,,,,,,,,5f7b2ce6b2c8250797d6b54d,5ff3ba19cfa0552381150a9a,2021-01-05_03h00.37.353,Colour_Similarity_Experiment_v1,2020.1.2,Win32,60,5ff3a352adaa099f7659f8cc,,,,,,,,,,,,,,,,,,,,FF,,,,,,,,3,2.24954,,,,,,,,,,,,,,,,,,,,,,,,,,,,7,-48,-66,1,0,0,response5disk,5,141,2,-2,1,0,0,rectangle,2,-2,1,0,0,0,6,0,0.000515,2,-2,1,0,0,0,140,140,156,1,,,,,,,,,,,,,,,,,,,,,
,,,,,,,,,,,,,,,,,,,,,,,,,,,,,,,,,,,,,,,,,,,5f7b2ce6b2c8250797d6b54d,5ff3ba19cfa0552381150a9a,2021-01-05_03h00.37.353,Colour_Similarity_Experiment_v1,2020.1.2,Win32,60,5ff3a352adaa099f7659f8cc,,,,,,,,,,,,,,,,,,,,PF,,,,,,,,1,3.25038,,,,,,,,,,,,,,,,,,,,,,,,,,,,3,-126,55,1,0,0,response7disk,4,142,3,0,1,0,0,rectangle,3,0,1,0,0,0,2,0,0.00056,3,0,1,0,0,0,141,141,30,1,,,,,,,,,,,,,,,,,,,,,
,,,,,,,,,,,,,,,,,,,,,,,,,,,,,,,,,,,,,,,,,,,5f7b2ce6b2c8250797d6b54d,5ff3ba19cfa0552381150a9a,2021-01-05_03h00.37.353,Colour_Similarity_Experiment_v1,2020.1.2,Win32,60,5ff3a352adaa099f7659f8cc,,,,,,,,,,,,,,,,,,,,FF,,,,,,,,2,1.3501,,,,,,,,,,,,,,,,,,,,,,,,,,,,2,-93,-36,1,0,0,response5disk,4,143,-12,-3,1,0,0,rectangle,-12,-3,1,0,0,0,2,0,0.0006,-12,-3,1,0,0,0,142,142,145,1,,,,,,,,,,,,,,,,,,,,,
,,,,,,,,,,,,,,,,,,,,,,,,,,,,,,,,,,,,,,,,,,,5f7b2ce6b2c8250797d6b54d,5ff3ba19cfa0552381150a9a,2021-01-05_03h00.37.353,Colour_Similarity_Experiment_v1,2020.1.2,Win32,60,5ff3a352adaa099f7659f8cc,,,,,,,,,,,,,,,,,,,,PF,,,,,,,,0,1.43299,,,,,,,,,,,,,,,,,,,,,,,,,,,,6,-65,117,1,0,0,response7disk,6,144,-4,-10,1,0,0,rectangle,-4,-10,1,0,0,0,6,0,0.00061,-4,-10,1,0,0,0,143,143,0,1,,,,,,,,,,,,,,,,,,,,,
,,,,,,,,,,,,,,,,,,,,,,,,,,,,,,,,,,,,,,,,,,,5f7b2ce6b2c8250797d6b54d,5ff3ba19cfa0552381150a9a,2021-01-05_03h00.37.353,Colour_Similarity_Experiment_v1,2020.1.2,Win32,60,5ff3a352adaa099f7659f8cc,,,,,,,,,,,,,,,,,,,,PF,,,,,,,,4,2.799475,,,,,,,,,,,,,,,,,,,,,,,,,,,,2,32,-76,1,0,0,response3disk,7,145,-4,-1,1,0,0,rectangle,-4,-1,1,0,0,0,7,0,0.000565,-4,-1,1,0,0,0,144,144,107,1,,,,,,,,,,,,,,,,,,,,,
,,,,,,,,,,,,,,,,,,,,,,,,,,,,,,,,,,,,,,,,,,,5f7b2ce6b2c8250797d6b54d,5ff3ba19cfa0552381150a9a,2021-01-05_03h00.37.353,Colour_Similarity_Experiment_v1,2020.1.2,Win32,60,5ff3a352adaa099f7659f8cc,,,,,,,,,,,,,,,,,,,,PF,,,,,,,,6,2.08288,,,,,,,,,,,,,,,,,,,,,,,,,,,,5,78,47,1,0,0,response1disk,1,146,-9,-2,1,0,0,rectangle,-54,-133,1,0,0,3,3,1,2.967205,1,14,1,0,0,0,145,145,159,1,response5disk_3,rectangle,,,,,,,,,,,,,,,,,,,
,,,,,,,,,,,,,,,,,,,,,,,,,,,,,,,,,,,,,,,,,,,5f7b2ce6b2c8250797d6b54d,5ff3ba19cfa0552381150a9a,2021-01-05_03h00.37.353,Colour_Similarity_Experiment_v1,2020.1.2,Win32,60,5ff3a352adaa099f7659f8cc,,,,,,,,,,,,,,,,,,,,FF,,,,,,,,1,1.96609,,,,,,,,,,,,,,,,,,,,,,,,,,,,3,-103,43,1,0,0,response7disk,5,147,9,-7,1,0,0,rectangle,9,-7,1,0,0,3,2,0,0.00056,9,-7,1,0,0,0,146,146,101,1,,,,,,,,,,,,,,,,,,,,,
,,,,,,,,,,,,,,,,,,,,,,,,,,,,,,,,,,,,,,,,,,,5f7b2ce6b2c8250797d6b54d,5ff3ba19cfa0552381150a9a,2021-01-05_03h00.37.353,Colour_Similarity_Experiment_v1,2020.1.2,Win32,60,5ff3a352adaa099f7659f8cc,,,,,,,,,,,,,,,,,,,,FF,,,,,,,,5,2.09957,,,,,,,,,,,,,,,,,,,,,,,,,,,,8,68,-38,1,0,0,response3disk,1,148,-7,-6,1,0,0,rectangle,-7,-6,1,0,0,3,6,0,0.000595,-7,-6,1,0,0,0,147,147,20,1,,,,,,,,,,,,,,,,,,,,,
,,,,,,,,,,,,,,,,,,,,,,,,,,,,,,,,,,,,,,,,,,,5f7b2ce6b2c8250797d6b54d,5ff3ba19cfa0552381150a9a,2021-01-05_03h00.37.353,Colour_Similarity_Experiment_v1,2020.1.2,Win32,60,5ff3a352adaa099f7659f8cc,,,,,,,,,,,,,,,,,,,,PF,,,,,,,,0,1.566605,,,,,,,,,,,,,,,,,,,,,,,,,,,,7,-50,105,1,0,0,response7disk,7,149,3,0,1,0,0,rectangle,3,0,1,0,0,3,3,0,0.00055,3,0,1,0,0,0,148,148,51,1,,,,,,,,,,,,,,,,,,,,,
,,,,,,,,,,,,,,,,,,,,,,,,,,,,,,,,,,,,,,,,,,,5f7b2ce6b2c8250797d6b54d,5ff3ba19cfa0552381150a9a,2021-01-05_03h00.37.353,Colour_Similarity_Experiment_v1,2020.1.2,Win32,60,5ff3a352adaa099f7659f8cc,,,,,,,,,,,,,,,,,,,,FF,,,,,,,,3,3.18344,,,,,,,,,,,,,,,,,,,,,,,,,,,,7,-38,-84,1,0,0,response5disk,3,150,-8,2,1,0,0,rectangle,-8,2,1,0,0,3,2,0,0.000575,-8,2,1,0,0,0,149,149,73,1,,,,,,,,,,,,,,,,,,,,,
,,,,,,,,,,,,,,,,,,,,,,,,,,,,,,,,,,,,,,,,,,,5f7b2ce6b2c8250797d6b54d,5ff3ba19cfa0552381150a9a,2021-01-05_03h00.37.353,Colour_Similarity_Experiment_v1,2020.1.2,Win32,60,5ff3a352adaa099f7659f8cc,,,,,,,,,,,,,,,,,,,,FF,,,,,,,,5,2.050165,,,,,,,,,,,,,,,,,,,,,,,,,,,,9,75,-33,1,0,0,response3disk,7,151,-1,-4,1,0,0,rectangle,-1,-4,1,0,0,3,7,0,0.000575,-1,-4,1,0,0,0,150,150,100,1,,,,,,,,,,,,,,,,,,,,,
,,,,,,,,,,,,,,,,,,,,,,,,,,,,,,,,,,,,,,,,,,,5f7b2ce6b2c8250797d6b54d,5ff3ba19cfa0552381150a9a,2021-01-05_03h00.37.353,Colour_Similarity_Experiment_v1,2020.1.2,Win32,60,5ff3a352adaa099f7659f8cc,,,,,,,,,,,,,,,,,,,,PF,,,,,,,,4,8.549585,,,,,,,,,,,,,,,,,,,,,,,,,,,,3,50,-101,1,0,0,response3disk,7,152,-13,10,1,0,0,rectangle,-13,10,1,0,0,3,5,0,0.000915,-13,10,1,0,0,0,151,151,41,1,,,,,,,,,,,,,,,,,,,,,
,,,,,,,,,,,,,,,,,,,,,,,,,,,,,,,,,,,,,,,,,,,5f7b2ce6b2c8250797d6b54d,5ff3ba19cfa0552381150a9a,2021-01-05_03h00.37.353,Colour_Similarity_Experiment_v1,2020.1.2,Win32,60,5ff3a352adaa099f7659f8cc,,,,,,,,,,,,,,,,,,,,PF,,,,,,,,2,1.61633,,,,,,,,,,,,,,,,,,,,,,,,,,,,6,-98,-39,1,0,0,response5disk,5,153,-2,-8,1,0,0,rectangle,-2,-8,1,0,0,3,4,0,0.000585,-2,-8,1,0,0,0,152,152,59,1,,,,,,,,,,,,,,,,,,,,,
,,,,,,,,,,,,,,,,,,,,,,,,,,,,,,,,,,,,,,,,,,,5f7b2ce6b2c8250797d6b54d,5ff3ba19cfa0552381150a9a,2021-01-05_03h00.37.353,Colour_Similarity_Experiment_v1,2020.1.2,Win32,60,5ff3a352adaa099f7659f8cc,,,,,,,,,,,,,,,,,,,,PF,,,,,,,,3,2.033795,,,,,,,,,,,,,,,,,,,,,,,,,,,,6,-54,-121,1,0,0,response5disk,9,154,-1,7,1,0,0,rectangle,-1,7,1,0,0,3,3,0,0.000575,-1,7,1,0,0,0,153,153,45,1,,,,,,,,,,,,,,,,,,,,,
,,,,,,,,,,,,,,,,,,,,,,,,,,,,,,,,,,,,,,,,,,,5f7b2ce6b2c8250797d6b54d,5ff3ba19cfa0552381150a9a,2021-01-05_03h00.37.353,Colour_Similarity_Experiment_v1,2020.1.2,Win32,60,5ff3a352adaa099f7659f8cc,,,,,,,,,,,,,,,,,,,,PF,,,,,,,,5,1.799975,,,,,,,,,,,,,,,,,,,,,,,,,,,,1,77,-45,1,0,0,response3disk,6,155,-27,-13,1,0,0,rectangle,-27,-13,1,0,0,3,0,0,0.000555,-27,-13,1,0,0,0,154,154,144,1,,,,,,,,,,,,,,,,,,,,,
,,,,,,,,,,,,,,,,,,,,,,,,,,,,,,,,,,,,,,,,,,,5f7b2ce6b2c8250797d6b54d,5ff3ba19cfa0552381150a9a,2021-01-05_03h00.37.353,Colour_Similarity_Experiment_v1,2020.1.2,Win32,60,5ff3a352adaa099f7659f8cc,,,,,,,,,,,,,,,,,,,,FF,,,,,,,,4,4.216755,,,,,,,,,,,,,,,,,,,,,,,,,,,,4,34,-75,1,0,0,response3disk,7,156,8,10,1,0,0,rectangle,8,10,1,0,0,3,6,0,0.00056,8,10,1,0,0,0,155,155,87,1,,,,,,,,,,,,,,,,,,,,,
,,,,,,,,,,,,,,,,,,,,,,,,,,,,,,,,,,,,,,,,,,,5f7b2ce6b2c8250797d6b54d,5ff3ba19cfa0552381150a9a,2021-01-05_03h00.37.353,Colour_Similarity_Experiment_v1,2020.1.2,Win32,60,5ff3a352adaa099f7659f8cc,,,,,,,,,,,,,,,,,,,,PF,,,,,,,,3,1.13341,,,,,,,,,,,,,,,,,,,,,,,,,,,,4,-29,-87,1,0,0,response5disk,6,157,1,-3,1,0,0,rectangle,1,-3,1,0,0,3,1,0,0.000525,1,-3,1,0,0,0,156,156,120,1,,,,,,,,,,,,,,,,,,,,,
,,,,,,,,,,,,,,,,,,,,,,,,,,,,,,,,,,,,,,,,,,,5f7b2ce6b2c8250797d6b54d,5ff3ba19cfa0552381150a9a,2021-01-05_03h00.37.353,Colour_Similarity_Experiment_v1,2020.1.2,Win32,60,5ff3a352adaa099f7659f8cc,,,,,,,,,,,,,,,,,,,,PF,,,,,,,,2,2.36687,,,,,,,,,,,,,,,,,,,,,,,,,,,,1,-70,-40,1,0,0,response5disk,9,158,2,0,1,0,0,rectangle,2,0,1,0,0,3,2,0,0.000575,2,0,1,0,0,0,157,157,15,1,,,,,,,,,,,,,,,,,,,,,
,,,,,,,,,,,,,,,,,,,,,,,,,,,,,,,,,,,,,,,,,,,5f7b2ce6b2c8250797d6b54d,5ff3ba19cfa0552381150a9a,2021-01-05_03h00.37.353,Colour_Similarity_Experiment_v1,2020.1.2,Win32,60,5ff3a352adaa099f7659f8cc,,,,,,,,,,,,,,,,,,,,PF,,,,,,,,4,2.08356,,,,,,,,,,,,,,,,,,,,,,,,,,,,2,25,-104,1,0,0,response3disk,5,159,-7,7,1,0,0,rectangle,-7,7,1,0,0,3,1,0,0.000545,-7,7,1,0,0,0,158,158,147,1,,,,,,,,,,,,,,,,,,,,,
,,,,,,,,,,,,,,,,,,,,,,,,,,,,,,,,,,,,,,,,,,,5f7b2ce6b2c8250797d6b54d,5ff3ba19cfa0552381150a9a,2021-01-05_03h00.37.353,Colour_Similarity_Experiment_v1,2020.1.2,Win32,60,5ff3a352adaa099f7659f8cc,,,,,,,,,,,,,,,,,,,,FF,,,,,,,,2,3.11758,,,,,,,,,,,,,,,,,,,,,,,,,,,,5,-70,-35,1,0,0,response5disk,6,160,-29,-3,1,0,0,rectangle,-29,-3,1,0,0,3,0,0,0.000575,-29,-3,1,0,0,0,159,159,12,1,,,,,,,,,,,,,,,,,,,,,
,,,,,,,,,,,,,,,,,,,,,,,,,,,,,,,,,,,,,,,,,,,5f7b2ce6b2c8250797d6b54d,5ff3ba19cfa0552381150a9a,2021-01-05_03h00.37.353,Colour_Similarity_Experiment_v1,2020.1.2,Win32,60,5ff3a352adaa099f7659f8cc,,,,,,,,,,,,,,,,,,,,PF,,,,,,,,5,1.083785,,,,,,,,,,,,,,,,,,,,,,,,,,,,7,75,-43,1,0,0,response3disk,2,161,-3,0,1,0,0,rectangle,-3,0,1,0,0,3,7,0,0.00054,-3,0,1,0,0,0,160,160,32,1,,,,,,,,,,,,,,,,,,,,,
,,,,,,,,,,,,,,,,,,,,,,,,,,,,,,,,,,,,,,,,,,,5f7b2ce6b2c8250797d6b54d,5ff3ba19cfa0552381150a9a,2021-01-05_03h00.37.353,Colour_Similarity_Experiment_v1,2020.1.2,Win32,60,5ff3a352adaa099f7659f8cc,,,,,,,,,,,,,,,,,,,,PF,,,,,,,,4,1.23291,,,,,,,,,,,,,,,,,,,,,,,,,,,,2,34,-75,1,0,0,response3disk,9,162,-1,2,1,0,0,rectangle,-1,2,1,0,0,3,2,0,0.001175,-1,2,1,0,0,0,161,161,39,1,,,,,,,,,,,,,,,,,,,,,
,,,,,,,,,,,,,,,,,,,,,,,,,,,,,,,,,,,,,,,,,,,5f7b2ce6b2c8250797d6b54d,5ff3ba19cfa0552381150a9a,2021-01-05_03h00.37.353,Colour_Similarity_Experiment_v1,2020.1.2,Win32,60,5ff3a352adaa099f7659f8cc,,,,,,,,,,,,,,,,,,,,,,,,,,,,,,,,,,,,,,,,,,,,,,,,,,,,,,,,,,,,,,,,,,,,,,,,,,,,,,,,,,,,,,,,,,,,,0,0,0,0,1,,,,,,,,,,,,,,
,,,,,,,,,,,,,,,,,,,,,,,,,,,,,,,,,,,,,,,,,,,5f7b2ce6b2c8250797d6b54d,5ff3ba19cfa0552381150a9a,2021-01-05_03h00.37.353,Colour_Similarity_Experiment_v1,2020.1.2,Win32,60,5ff3a352adaa099f7659f8cc,,,,,,,,,,,,,,,,,,,,FF,,,,,,,,0,1.26654,,,,,,,,,,,,,,,,,,,,,,,,,,,,6,-43,113,1,0,0,response7disk,6,163,-9,3,1,0,0,rectangle,-9,3,1,0,0,3,5,0,0.00061,-9,3,1,0,0,0,0,0,91,1,,,,,,,,,,,,,,,,,,,,,
,,,,,,,,,,,,,,,,,,,,,,,,,,,,,,,,,,,,,,,,,,,5f7b2ce6b2c8250797d6b54d,5ff3ba19cfa0552381150a9a,2021-01-05_03h00.37.353,Colour_Similarity_Experiment_v1,2020.1.2,Win32,60,5ff3a352adaa099f7659f8cc,,,,,,,,,,,,,,,,,,,,FF,,,,,,,,3,1.667135,,,,,,,,,,,,,,,,,,,,,,,,,,,,3,-32,-69,1,0,0,response5disk,8,164,4,4,1,0,0,rectangle,4,4,1,0,0,3,0,0,0.00057,4,4,1,0,0,0,1,1,44,1,,,,,,,,,,,,,,,,,,,,,
,,,,,,,,,,,,,,,,,,,,,,,,,,,,,,,,,,,,,,,,,,,5f7b2ce6b2c8250797d6b54d,5ff3ba19cfa0552381150a9a,2021-01-05_03h00.37.353,Colour_Similarity_Experiment_v1,2020.1.2,Win32,60,5ff3a352adaa099f7659f8cc,,,,,,,,,,,,,,,,,,,,FF,,,,,,,,2,1.016835,,,,,,,,,,,,,,,,,,,,,,,,,,,,9,-78,-36,1,0,0,response5disk,5,165,-22,1,1,0,0,rectangle,-22,1,1,0,0,3,2,0,0.00056,-22,1,1,0,0,0,2,2,128,1,,,,,,,,,,,,,,,,,,,,,
,,,,,,,,,,,,,,,,,,,,,,,,,,,,,,,,,,,,,,,,,,,5f7b2ce6b2c8250797d6b54d,5ff3ba19cfa0552381150a9a,2021-01-05_03h00.37.353,Colour_Similarity_Experiment_v1,2020.1.2,Win32,60,5ff3a352adaa099f7659f8cc,,,,,,,,,,,,,,,,,,,,FF,,,,,,,,2,2.61695,,,,,,,,,,,,,,,,,,,,,,,,,,,,7,-81,-38,1,0,0,response5disk,1,166,7,4,1,0,0,rectangle,7,4,1,0,0,3,5,0,0.000565,7,4,1,0,0,0,3,3,132,1,,,,,,,,,,,,,,,,,,,,,
,,,,,,,,,,,,,,,,,,,,,,,,,,,,,,,,,,,,,,,,,,,5f7b2ce6b2c8250797d6b54d,5ff3ba19cfa0552381150a9a,2021-01-05_03h00.37.353,Colour_Similarity_Experiment_v1,2020.1.2,Win32,60,5ff3a352adaa099f7659f8cc,,,,,,,,,,,,,,,,,,,,FF,,,,,,,,3,1.149715,,,,,,,,,,,,,,,,,,,,,,,,,,,,3,-44,-59,1,0,0,response5disk,2,167,-17,0,1,0,0,rectangle,-17,0,1,0,0,3,7,0,0.00058,-17,0,1,0,0,0,4,4,93,1,,,,,,,,,,,,,,,,,,,,,
,,,,,,,,,,,,,,,,,,,,,,,,,,,,,,,,,,,,,,,,,,,5f7b2ce6b2c8250797d6b54d,5ff3ba19cfa0552381150a9a,2021-01-05_03h00.37.353,Colour_Similarity_Experiment_v1,2020.1.2,Win32,60,5ff3a352adaa099f7659f8cc,,,,,,,,,,,,,,,,,,,,FF,,,,,,,,2,1.066025,,,,,,,,,,,,,,,,,,,,,,,,,,,,4,-84,-50,1,0,0,response5disk,4,168,0,3,1,0,0,rectangle,0,3,1,0,0,3,2,0,0.00051,0,3,1,0,0,0,5,5,84,1,,,,,,,,,,,,,,,,,,,,,
,,,,,,,,,,,,,,,,,,,,,,,,,,,,,,,,,,,,,,,,,,,5f7b2ce6b2c8250797d6b54d,5ff3ba19cfa0552381150a9a,2021-01-05_03h00.37.353,Colour_Similarity_Experiment_v1,2020.1.2,Win32,60,5ff3a352adaa099f7659f8cc,,,,,,,,,,,,,,,,,,,,FF,,,,,,,,5,4.050505,,,,,,,,,,,,,,,,,,,,,,,,,,,,4,61,-45,1,0,0,response3disk,8,169,-20,-15,1,0,0,rectangle,-20,-15,1,0,0,3,0,0,0.00057,-20,-15,1,0,0,0,6,6,35,1,,,,,,,,,,,,,,,,,,,,,
,,,,,,,,,,,,,,,,,,,,,,,,,,,,,,,,,,,,,,,,,,,5f7b2ce6b2c8250797d6b54d,5ff3ba19cfa0552381150a9a,2021-01-05_03h00.37.353,Colour_Similarity_Experiment_v1,2020.1.2,Win32,60,5ff3a352adaa099f7659f8cc,,,,,,,,,,,,,,,,,,,,PF,,,,,,,,5,2.38267,,,,,,,,,,,,,,,,,,,,,,,,,,,,1,107,-28,1,0,0,response3disk,7,170,-18,15,1,0,0,rectangle,-18,15,1,0,0,3,2,0,0.00058,-18,15,1,0,0,0,7,7,150,1,,,,,,,,,,,,,,,,,,,,,
,,,,,,,,,,,,,,,,,,,,,,,,,,,,,,,,,,,,,,,,,,,5f7b2ce6b2c8250797d6b54d,5ff3ba19cfa0552381150a9a,2021-01-05_03h00.37.353,Colour_Similarity_Experiment_v1,2020.1.2,Win32,60,5ff3a352adaa099f7659f8cc,,,,,,,,,,,,,,,,,,,,PF,,,,,,,,3,1.967365,,,,,,,,,,,,,,,,,,,,,,,,,,,,6,-38,-74,1,0,0,response5disk,3,171,-4,-5,1,0,0,rectangle,-4,-5,1,0,0,3,2,0,0.000655,-4,-5,1,0,0,0,8,8,26,1,,,,,,,,,,,,,,,,,,,,,
,,,,,,,,,,,,,,,,,,,,,,,,,,,,,,,,,,,,,,,,,,,5f7b2ce6b2c8250797d6b54d,5ff3ba19cfa0552381150a9a,2021-01-05_03h00.37.353,Colour_Similarity_Experiment_v1,2020.1.2,Win32,60,5ff3a352adaa099f7659f8cc,,,,,,,,,,,,,,,,,,,,FF,,,,,,,,0,1.266045,,,,,,,,,,,,,,,,,,,,,,,,,,,,3,-38,84,1,0,0,response7disk,3,172,-5,4,1,0,0,rectangle,-5,4,1,0,0,3,4,0,0.00058,-5,4,1,0,0,0,9,9,68,1,,,,,,,,,,,,,,,,,,,,,
,,,,,,,,,,,,,,,,,,,,,,,,,,,,,,,,,,,,,,,,,,,5f7b2ce6b2c8250797d6b54d,5ff3ba19cfa0552381150a9a,2021-01-05_03h00.37.353,Colour_Similarity_Experiment_v1,2020.1.2,Win32,60,5ff3a352adaa099f7659f8cc,,,,,,,,,,,,,,,,,,,,PF,,,,,,,,3,1.36662,,,,,,,,,,,,,,,,,,,,,,,,,,,,4,-36,-49,1,0,0,response5disk,6,173,-13,2,1,0,0,rectangle,-13,2,1,0,0,3,6,0,0.00056,-13,2,1,0,0,0,10,10,120,1,,,,,,,,,,,,,,,,,,,,,
,,,,,,,,,,,,,,,,,,,,,,,,,,,,,,,,,,,,,,,,,,,5f7b2ce6b2c8250797d6b54d,5ff3ba19cfa0552381150a9a,2021-01-05_03h00.37.353,Colour_Similarity_Experiment_v1,2020.1.2,Win32,60,5ff3a352adaa099f7659f8cc,,,,,,,,,,,,,,,,,,,,PF,,,,,,,,3,1.56718,,,,,,,,,,,,,,,,,,,,,,,,,,,,7,-34,-48,1,0,0,response5disk,8,174,-7,3,1,0,0,rectangle,-7,3,1,0,0,3,0,0,0.000555,-7,3,1,0,0,0,11,11,140,1,,,,,,,,,,,,,,,,,,,,,
,,,,,,,,,,,,,,,,,,,,,,,,,,,,,,,,,,,,,,,,,,,5f7b2ce6b2c8250797d6b54d,5ff3ba19cfa0552381150a9a,2021-01-05_03h00.37.353,Colour_Similarity_Experiment_v1,2020.1.2,Win32,60,5ff3a352adaa099f7659f8cc,,,,,,,,,,,,,,,,,,,,PF,,,,,,,,5,2.21704,,,,,,,,,,,,,,,,,,,,,,,,,,,,1,56,-23,1,0,0,response3disk,3,175,-13,0,1,0,0,rectangle,-13,0,1,0,0,3,5,0,0.0006,-13,0,1,0,0,0,12,12,1,1,,,,,,,,,,,,,,,,,,,,,
,,,,,,,,,,,,,,,,,,,,,,,,,,,,,,,,,,,,,,,,,,,5f7b2ce6b2c8250797d6b54d,5ff3ba19cfa0552381150a9a,2021-01-05_03h00.37.353,Colour_Similarity_Experiment_v1,2020.1.2,Win32,60,5ff3a352adaa099f7659f8cc,,,,,,,,,,,,,,,,,,,,PF,,,,,,,,0,1.016895,,,,,,,,,,,,,,,,,,,,,,,,,,,,9,-44,123,1,0,0,response7disk,9,176,6,2,1,0,0,rectangle,6,2,1,0,0,3,2,0,0.000565,6,2,1,0,0,0,13,13,106,1,,,,,,,,,,,,,,,,,,,,,
,,,,,,,,,,,,,,,,,,,,,,,,,,,,,,,,,,,,,,,,,,,5f7b2ce6b2c8250797d6b54d,5ff3ba19cfa0552381150a9a,2021-01-05_03h00.37.353,Colour_Similarity_Experiment_v1,2020.1.2,Win32,60,5ff3a352adaa099f7659f8cc,,,,,,,,,,,,,,,,,,,,PF,,,,,,,,3,2.282755,,,,,,,,,,,,,,,,,,,,,,,,,,,,8,-26,-74,1,0,0,response5disk,1,177,6,7,1,0,0,rectangle,6,7,1,0,0,3,2,0,0.00052,6,7,1,0,0,0,14,14,57,1,,,,,,,,,,,,,,,,,,,,,
,,,,,,,,,,,,,,,,,,,,,,,,,,,,,,,,,,,,,,,,,,,5f7b2ce6b2c8250797d6b54d,5ff3ba19cfa0552381150a9a,2021-01-05_03h00.37.353,Colour_Similarity_Experiment_v1,2020.1.2,Win32,60,5ff3a352adaa099f7659f8cc,,,,,,,,,,,,,,,,,,,,PF,,,,,,,,0,3.050245,,,,,,,,,,,,,,,,,,,,,,,,,,,,8,-40,89,1,0,0,response7disk,8,178,0,-2,1,0,0,rectangle,0,-2,1,0,0,3,5,0,0.00057,0,-2,1,0,0,0,15,15,153,1,,,,,,,,,,,,,,,,,,,,,
,,,,,,,,,,,,,,,,,,,,,,,,,,,,,,,,,,,,,,,,,,,5f7b2ce6b2c8250797d6b54d,5ff3ba19cfa0552381150a9a,2021-01-05_03h00.37.353,Colour_Similarity_Experiment_v1,2020.1.2,Win32,60,5ff3a352adaa099f7659f8cc,,,,,,,,,,,,,,,,,,,,PF,,,,,,,,3,2.11688,,,,,,,,,,,,,,,,,,,,,,,,,,,,7,-26,-56,1,0,0,response5disk,9,179,-8,6,1,0,0,rectangle,-8,6,1,0,0,3,2,0,0.00056,-8,6,1,0,0,0,16,16,10,1,,,,,,,,,,,,,,,,,,,,,
,,,,,,,,,,,,,,,,,,,,,,,,,,,,,,,,,,,,,,,,,,,5f7b2ce6b2c8250797d6b54d,5ff3ba19cfa0552381150a9a,2021-01-05_03h00.37.353,Colour_Similarity_Experiment_v1,2020.1.2,Win32,60,5ff3a352adaa099f7659f8cc,,,,,,,,,,,,,,,,,,,,FF,,,,,,,,0,1.88269,,,,,,,,,,,,,,,,,,,,,,,,,,,,2,-44,109,1,0,0,response7disk,2,180,-1,11,1,0,0,rectangle,-1,11,1,0,0,3,4,0,0.000585,-1,11,1,0,0,0,17,17,142,1,,,,,,,,,,,,,,,,,,,,,
,,,,,,,,,,,,,,,,,,,,,,,,,,,,,,,,,,,,,,,,,,,5f7b2ce6b2c8250797d6b54d,5ff3ba19cfa0552381150a9a,2021-01-05_03h00.37.353,Colour_Similarity_Experiment_v1,2020.1.2,Win32,60,5ff3a352adaa099f7659f8cc,,,,,,,,,,,,,,,,,,,,PF,,,,,,,,0,1.099585,,,,,,,,,,,,,,,,,,,,,,,,,,,,3,-44,122,1,0,0,response7disk,3,181,-2,6,1,0,0,rectangle,-2,6,1,0,0,3,0,0,0.000565,-2,6,1,0,0,0,18,18,4,1,,,,,,,,,,,,,,,,,,,,,
,,,,,,,,,,,,,,,,,,,,,,,,,,,,,,,,,,,,,,,,,,,5f7b2ce6b2c8250797d6b54d,5ff3ba19cfa0552381150a9a,2021-01-05_03h00.37.353,Colour_Similarity_Experiment_v1,2020.1.2,Win32,60,5ff3a352adaa099f7659f8cc,,,,,,,,,,,,,,,,,,,,FF,,,,,,,,6,4.51679,,,,,,,,,,,,,,,,,,,,,,,,,,,,9,95,42,1,0,0,response1disk,3,182,11,-7,1,0,0,rectangle,11,-7,1,0,0,3,7,0,0.000605,11,-7,1,0,0,0,19,19,141,1,,,,,,,,,,,,,,,,,,,,,
,,,,,,,,,,,,,,,,,,,,,,,,,,,,,,,,,,,,,,,,,,,5f7b2ce6b2c8250797d6b54d,5ff3ba19cfa0552381150a9a,2021-01-05_03h00.37.353,Colour_Similarity_Experiment_v1,2020.1.2,Win32,60,5ff3a352adaa099f7659f8cc,,,,,,,,,,,,,,,,,,,,PF,,,,,,,,3,1.75039,,,,,,,,,,,,,,,,,,,,,,,,,,,,6,-43,-56,1,0,0,response5disk,2,183,-3,8,1,0,0,rectangle,-3,8,1,0,0,3,3,0,0.000515,-3,8,1,0,0,0,20,20,130,1,,,,,,,,,,,,,,,,,,,,,
,,,,,,,,,,,,,,,,,,,,,,,,,,,,,,,,,,,,,,,,,,,5f7b2ce6b2c8250797d6b54d,5ff3ba19cfa0552381150a9a,2021-01-05_03h00.37.353,Colour_Similarity_Experiment_v1,2020.1.2,Win32,60,5ff3a352adaa099f7659f8cc,,,,,,,,,,,,,,,,,,,,PF,,,,,,,,0,1.016095,,,,,,,,,,,,,,,,,,,,,,,,,,,,4,-38,112,1,0,0,response7disk,3,184,-4,11,1,0,0,rectangle,-4,11,1,0,0,3,1,0,0.000555,-4,11,1,0,0,0,21,21,89,1,,,,,,,,,,,,,,,,,,,,,
,,,,,,,,,,,,,,,,,,,,,,,,,,,,,,,,,,,,,,,,,,,5f7b2ce6b2c8250797d6b54d,5ff3ba19cfa0552381150a9a,2021-01-05_03h00.37.353,Colour_Similarity_Experiment_v1,2020.1.2,Win32,60,5ff3a352adaa099f7659f8cc,,,,,,,,,,,,,,,,,,,,FF,,,,,,,,6,2.016655,,,,,,,,,,,,,,,,,,,,,,,,,,,,9,67,45,1,0,0,response1disk,4,185,2,14,1,0,0,rectangle,2,14,1,0,0,3,7,0,0.00062,2,14,1,0,0,0,22,22,60,1,,,,,,,,,,,,,,,,,,,,,
,,,,,,,,,,,,,,,,,,,,,,,,,,,,,,,,,,,,,,,,,,,5f7b2ce6b2c8250797d6b54d,5ff3ba19cfa0552381150a9a,2021-01-05_03h00.37.353,Colour_Similarity_Experiment_v1,2020.1.2,Win32,60,5ff3a352adaa099f7659f8cc,,,,,,,,,,,,,,,,,,,,PF,,,,,,,,1,1.78293,,,,,,,,,,,,,,,,,,,,,,,,,,,,5,-98,45,1,0,0,response7disk,5,186,17,4,1,0,0,rectangle,17,4,1,0,0,3,0,0,0.00058,17,4,1,0,0,0,23,23,94,1,,,,,,,,,,,,,,,,,,,,,
,,,,,,,,,,,,,,,,,,,,,,,,,,,,,,,,,,,,,,,,,,,5f7b2ce6b2c8250797d6b54d,5ff3ba19cfa0552381150a9a,2021-01-05_03h00.37.353,Colour_Similarity_Experiment_v1,2020.1.2,Win32,60,5ff3a352adaa099f7659f8cc,,,,,,,,,,,,,,,,,,,,FF,,,,,,,,6,2.733145,,,,,,,,,,,,,,,,,,,,,,,,,,,,4,80,49,1,0,0,response1disk,9,187,-3,13,1,0,0,rectangle,-3,13,1,0,0,3,1,0,0.00055,-3,13,1,0,0,0,24,24,90,1,,,,,,,,,,,,,,,,,,,,,
,,,,,,,,,,,,,,,,,,,,,,,,,,,,,,,,,,,,,,,,,,,5f7b2ce6b2c8250797d6b54d,5ff3ba19cfa0552381150a9a,2021-01-05_03h00.37.353,Colour_Similarity_Experiment_v1,2020.1.2,Win32,60,5ff3a352adaa099f7659f8cc,,,,,,,,,,,,,,,,,,,,PF,,,,,,,,6,1.383345,,,,,,,,,,,,,,,,,,,,,,,,,,,,3,93,46,1,0,0,response1disk,9,188,2,8,1,0,0,rectangle,2,8,1,0,0,3,1,0,0.000535,2,8,1,0,0,0,25,25,79,1,,,,,,,,,,,,,,,,,,,,,
,,,,,,,,,,,,,,,,,,,,,,,,,,,,,,,,,,,,,,,,,,,5f7b2ce6b2c8250797d6b54d,5ff3ba19cfa0552381150a9a,2021-01-05_03h00.37.353,Colour_Similarity_Experiment_v1,2020.1.2,Win32,60,5ff3a352adaa099f7659f8cc,,,,,,,,,,,,,,,,,,,,FF,,,,,,,,5,5.46737,,,,,,,,,,,,,,,,,,,,,,,,,,,,4,63,-28,1,0,0,response3disk,1,189,-28,-6,1,0,0,rectangle,-28,-6,1,0,0,3,7,0,0.000595,-28,-6,1,0,0,0,26,26,102,1,,,,,,,,,,,,,,,,,,,,,
,,,,,,,,,,,,,,,,,,,,,,,,,,,,,,,,,,,,,,,,,,,5f7b2ce6b2c8250797d6b54d,5ff3ba19cfa0552381150a9a,2021-01-05_03h00.37.353,Colour_Similarity_Experiment_v1,2020.1.2,Win32,60,5ff3a352adaa099f7659f8cc,,,,,,,,,,,,,,,,,,,,PF,,,,,,,,0,1.133285,,,,,,,,,,,,,,,,,,,,,,,,,,,,1,-44,119,1,0,0,response7disk,1,190,8,-10,1,0,0,rectangle,-55,137,1,0,0,0,0,1,2.1327,-11,3,1,0,0,0,27,27,76,1,response7disk_3,rectangle,,,,,,,,,,,,,,,,,,,
,,,,,,,,,,,,,,,,,,,,,,,,,,,,,,,,,,,,,,,,,,,5f7b2ce6b2c8250797d6b54d,5ff3ba19cfa0552381150a9a,2021-01-05_03h00.37.353,Colour_Similarity_Experiment_v1,2020.1.2,Win32,60,5ff3a352adaa099f7659f8cc,,,,,,,,,,,,,,,,,,,,FF,,,,,,,,1,3.31767,,,,,,,,,,,,,,,,,,,,,,,,,,,,3,-111,32,1,0,0,response7disk,5,191,2,-10,1,0,0,rectangle,2,-10,1,0,0,0,5,0,0.000565,2,-10,1,0,0,0,28,28,101,1,,,,,,,,,,,,,,,,,,,,,
,,,,,,,,,,,,,,,,,,,,,,,,,,,,,,,,,,,,,,,,,,,5f7b2ce6b2c8250797d6b54d,5ff3ba19cfa0552381150a9a,2021-01-05_03h00.37.353,Colour_Similarity_Experiment_v1,2020.1.2,Win32,60,5ff3a352adaa099f7659f8cc,,,,,,,,,,,,,,,,,,,,PF,,,,,,,,2,2.150365,,,,,,,,,,,,,,,,,,,,,,,,,,,,8,-90,-49,1,0,0,response5disk,6,192,-15,-7,1,0,0,rectangle,-113,56,1,0,0,1,1,1,1.93305,-6,1,1,0,0,0,29,29,161,1,response7disk_3,rectangle,,,,,,,,,,,,,,,,,,,
,,,,,,,,,,,,,,,,,,,,,,,,,,,,,,,,,,,,,,,,,,,5f7b2ce6b2c8250797d6b54d,5ff3ba19cfa0552381150a9a,2021-01-05_03h00.37.353,Colour_Similarity_Experiment_v1,2020.1.2,Win32,60,5ff3a352adaa099f7659f8cc,,,,,,,,,,,,,,,,,,,,PF,,,,,,,,4,1.98321,,,,,,,,,,,,,,,,,,,,,,,,,,,,3,33,-68,1,0,0,response3disk,1,193,7,1,1,0,0,rectangle,7,1,1,0,0,1,5,0,0.000565,7,1,1,0,0,0,30,30,96,1,,,,,,,,,,,,,,,,,,,,,
,,,,,,,,,,,,,,,,,,,,,,,,,,,,,,,,,,,,,,,,,,,5f7b2ce6b2c8250797d6b54d,5ff3ba19cfa0552381150a9a,2021-01-05_03h00.37.353,Colour_Similarity_Experiment_v1,2020.1.2,Win32,60,5ff3a352adaa099f7659f8cc,,,,,,,,,,,,,,,,,,,,FF,,,,,,,,4,2.91762,,,,,,,,,,,,,,,,,,,,,,,,,,,,3,56,-101,1,0,0,response3disk,9,194,3,0,1,0,0,rectangle,3,0,1,0,0,1,0,0,0.00052,3,0,1,0,0,0,31,31,143,1,,,,,,,,,,,,,,,,,,,,,
,,,,,,,,,,,,,,,,,,,,,,,,,,,,,,,,,,,,,,,,,,,5f7b2ce6b2c8250797d6b54d,5ff3ba19cfa0552381150a9a,2021-01-05_03h00.37.353,Colour_Similarity_Experiment_v1,2020.1.2,Win32,60,5ff3a352adaa099f7659f8cc,,,,,,,,,,,,,,,,,,,,FF,,,,,,,,3,2.266165,,,,,,,,,,,,,,,,,,,,,,,,,,,,9,-29,-75,1,0,0,response5disk,2,195,-1,-1,1,0,0,rectangle,-38,-115,1,0,0,3,3,1,2.33362,-8,0,1,0,0,0,32,32,11,1,response5disk_3,rectangle,,,,,,,,,,,,,,,,,,,
,,,,,,,,,,,,,,,,,,,,,,,,,,,,,,,,,,,,,,,,,,,5f7b2ce6b2c8250797d6b54d,5ff3ba19cfa0552381150a9a,2021-01-05_03h00.37.353,Colour_Similarity_Experiment_v1,2020.1.2,Win32,60,5ff3a352adaa099f7659f8cc,,,,,,,,,,,,,,,,,,,,PF,,,,,,,,4,3.066945,,,,,,,,,,,,,,,,,,,,,,,,,,,,4,26,-70,1,0,0,response3disk,9,196,-13,8,1,0,0,rectangle,-13,8,1,0,0,3,0,0,0.00058,-13,8,1,0,0,0,33,33,75,1,,,,,,,,,,,,,,,,,,,,,
,,,,,,,,,,,,,,,,,,,,,,,,,,,,,,,,,,,,,,,,,,,5f7b2ce6b2c8250797d6b54d,5ff3ba19cfa0552381150a9a,2021-01-05_03h00.37.353,Colour_Similarity_Experiment_v1,2020.1.2,Win32,60,5ff3a352adaa099f7659f8cc,,,,,,,,,,,,,,,,,,,,PF,,,,,,,,2,1.583385,,,,,,,,,,,,,,,,,,,,,,,,,,,,2,-96,-26,1,0,0,response5disk,1,197,0,-7,1,0,0,rectangle,0,-7,1,0,0,3,1,0,0.000545,0,-7,1,0,0,0,34,34,9,1,,,,,,,,,,,,,,,,,,,,,
,,,,,,,,,,,,,,,,,,,,,,,,,,,,,,,,,,,,,,,,,,,5f7b2ce6b2c8250797d6b54d,5ff3ba19cfa0552381150a9a,2021-01-05_03h00.37.353,Colour_Similarity_Experiment_v1,2020.1.2,Win32,60,5ff3a352adaa099f7659f8cc,,,,,,,,,,,,,,,,,,,,PF,,,,,,,,6,2.083835,,,,,,,,,,,,,,,,,,,,,,,,,,,,6,91,44,1,0,0,response1disk,1,198,-2,-5,1,0,0,rectangle,-2,-5,1,0,0,3,4,0,0.00055,-2,-5,1,0,0,0,35,35,46,1,,,,,,,,,,,,,,,,,,,,,
,,,,,,,,,,,,,,,,,,,,,,,,,,,,,,,,,,,,,,,,,,,5f7b2ce6b2c8250797d6b54d,5ff3ba19cfa0552381150a9a,2021-01-05_03h00.37.353,Colour_Similarity_Experiment_v1,2020.1.2,Win32,60,5ff3a352adaa099f7659f8cc,,,,,,,,,,,,,,,,,,,,FF,,,,,,,,4,1.800215,,,,,,,,,,,,,,,,,,,,,,,,,,,,3,48,-74,1,0,0,response3disk,1,199,13,-9,1,0,0,rectangle,13,-9,1,0,0,3,6,0,0.000555,13,-9,1,0,0,0,36,36,125,1,,,,,,,,,,,,,,,,,,,,,
,,,,,,,,,,,,,,,,,,,,,,,,,,,,,,,,,,,,,,,,,,,5f7b2ce6b2c8250797d6b54d,5ff3ba19cfa0552381150a9a,2021-01-05_03h00.37.353,Colour_Similarity_Experiment_v1,2020.1.2,Win32,60,5ff3a352adaa099f7659f8cc,,,,,,,,,,,,,,,,,,,,PF,,,,,,,,2,2.3665,,,,,,,,,,,,,,,,,,,,,,,,,,,,6,-103,-43,1,0,0,response5disk,4,200,3,-4,1,0,0,rectangle,3,-4,1,0,0,3,0,0,0.00056,3,-4,1,0,0,0,37,37,33,1,,,,,,,,,,,,,,,,,,,,,
,,,,,,,,,,,,,,,,,,,,,,,,,,,,,,,,,,,,,,,,,,,5f7b2ce6b2c8250797d6b54d,5ff3ba19cfa0552381150a9a,2021-01-05_03h00.37.353,Colour_Similarity_Experiment_v1,2020.1.2,Win32,60,5ff3a352adaa099f7659f8cc,,,,,,,,,,,,,,,,,,,,PF,,,,,,,,0,1.38242,,,,,,,,,,,,,,,,,,,,,,,,,,,,2,-51,125,1,0,0,response7disk,2,201,-13,-9,1,0,0,rectangle,-13,-9,1,0,0,3,4,0,0.00055,-13,-9,1,0,0,0,38,38,14,1,,,,,,,,,,,,,,,,,,,,,
,,,,,,,,,,,,,,,,,,,,,,,,,,,,,,,,,,,,,,,,,,,5f7b2ce6b2c8250797d6b54d,5ff3ba19cfa0552381150a9a,2021-01-05_03h00.37.353,Colour_Similarity_Experiment_v1,2020.1.2,Win32,60,5ff3a352adaa099f7659f8cc,,,,,,,,,,,,,,,,,,,,FF,,,,,,,,0,1.165825,,,,,,,,,,,,,,,,,,,,,,,,,,,,9,-49,122,1,0,0,response7disk,9,202,12,-15,1,0,0,rectangle,12,-15,1,0,0,3,2,0,0.000595,12,-15,1,0,0,0,39,39,17,1,,,,,,,,,,,,,,,,,,,,,
,,,,,,,,,,,,,,,,,,,,,,,,,,,,,,,,,,,,,,,,,,,5f7b2ce6b2c8250797d6b54d,5ff3ba19cfa0552381150a9a,2021-01-05_03h00.37.353,Colour_Similarity_Experiment_v1,2020.1.2,Win32,60,5ff3a352adaa099f7659f8cc,,,,,,,,,,,,,,,,,,,,PF,,,,,,,,3,2.732865,,,,,,,,,,,,,,,,,,,,,,,,,,,,3,-43,-73,1,0,0,response5disk,7,203,-7,17,1,0,0,rectangle,-7,17,1,0,0,3,2,0,0.00057,-7,17,1,0,0,0,40,40,41,1,,,,,,,,,,,,,,,,,,,,,
,,,,,,,,,,,,,,,,,,,,,,,,,,,,,,,,,,,,,,,,,,,5f7b2ce6b2c8250797d6b54d,5ff3ba19cfa0552381150a9a,2021-01-05_03h00.37.353,Colour_Similarity_Experiment_v1,2020.1.2,Win32,60,5ff3a352adaa099f7659f8cc,,,,,,,,,,,,,,,,,,,,PF,,,,,,,,4,3.117195,,,,,,,,,,,,,,,,,,,,,,,,,,,,9,34,-97,1,0,0,response3disk,6,204,-27,5,1,0,0,rectangle,-27,5,1,0,0,3,0,0,0.001255,-27,5,1,0,0,0,41,41,148,1,,,,,,,,,,,,,,,,,,,,,
,,,,,,,,,,,,,,,,,,,,,,,,,,,,,,,,,,,,,,,,,,,5f7b2ce6b2c8250797d6b54d,5ff3ba19cfa0552381150a9a,2021-01-05_03h00.37.353,Colour_Similarity_Experiment_v1,2020.1.2,Win32,60,5ff3a352adaa099f7659f8cc,,,,,,,,,,,,,,,,,,,,PF,,,,,,,,5,1.668545,,,,,,,,,,,,,,,,,,,,,,,,,,,,8,94,-44,1,0,0,response3disk,4,205,-6,-1,1,0,0,rectangle,-6,-1,1,0,0,3,0,0,0.00056,-6,-1,1,0,0,0,42,42,78,1,,,,,,,,,,,,,,,,,,,,,
,,,,,,,,,,,,,,,,,,,,,,,,,,,,,,,,,,,,,,,,,,,5f7b2ce6b2c8250797d6b54d,5ff3ba19cfa0552381150a9a,2021-01-05_03h00.37.353,Colour_Similarity_Experiment_v1,2020.1.2,Win32,60,5ff3a352adaa099f7659f8cc,,,,,,,,,,,,,,,,,,,,FF,,,,,,,,6,1.933715,,,,,,,,,,,,,,,,,,,,,,,,,,,,1,91,41,1,0,0,response1disk,4,206,-14,-2,1,0,0,rectangle,-14,-2,1,0,0,3,5,0,0.000585,-14,-2,1,0,0,0,43,43,135,1,,,,,,,,,,,,,,,,,,,,,
,,,,,,,,,,,,,,,,,,,,,,,,,,,,,,,,,,,,,,,,,,,5f7b2ce6b2c8250797d6b54d,5ff3ba19cfa0552381150a9a,2021-01-05_03h00.37.353,Colour_Similarity_Experiment_v1,2020.1.2,Win32,60,5ff3a352adaa099f7659f8cc,,,,,,,,,,,,,,,,,,,,PF,,,,,,,,4,2.766035,,,,,,,,,,,,,,,,,,,,,,,,,,,,8,66,-95,1,0,0,response3disk,5,207,15,15,1,0,0,rectangle,15,15,1,0,0,3,1,0,0.000555,15,15,1,0,0,0,44,44,98,1,,,,,,,,,,,,,,,,,,,,,
,,,,,,,,,,,,,,,,,,,,,,,,,,,,,,,,,,,,,,,,,,,5f7b2ce6b2c8250797d6b54d,5ff3ba19cfa0552381150a9a,2021-01-05_03h00.37.353,Colour_Similarity_Experiment_v1,2020.1.2,Win32,60,5ff3a352adaa099f7659f8cc,,,,,,,,,,,,,,,,,,,,FF,,,,,,,,0,1.133695,,,,,,,,,,,,,,,,,,,,,,,,,,,,7,-41,110,1,0,0,response7disk,7,208,2,16,1,0,0,rectangle,2,16,1,0,0,3,1,0,0.00059,2,16,1,0,0,0,45,45,34,1,,,,,,,,,,,,,,,,,,,,,
,,,,,,,,,,,,,,,,,,,,,,,,,,,,,,,,,,,,,,,,,,,5f7b2ce6b2c8250797d6b54d,5ff3ba19cfa0552381150a9a,2021-01-05_03h00.37.353,Colour_Similarity_Experiment_v1,2020.1.2,Win32,60,5ff3a352adaa099f7659f8cc,,,,,,,,,,,,,,,,,,,,PF,,,,,,,,3,1.199505,,,,,,,,,,,,,,,,,,,,,,,,,,,,2,-48,-102,1,0,0,response5disk,3,209,-3,-5,1,0,0,rectangle,-3,-5,1,0,0,3,6,0,0.000525,-3,-5,1,0,0,0,46,46,69,1,,,,,,,,,,,,,,,,,,,,,
,,,,,,,,,,,,,,,,,,,,,,,,,,,,,,,,,,,,,,,,,,,5f7b2ce6b2c8250797d6b54d,5ff3ba19cfa0552381150a9a,2021-01-05_03h00.37.353,Colour_Similarity_Experiment_v1,2020.1.2,Win32,60,5ff3a352adaa099f7659f8cc,,,,,,,,,,,,,,,,,,,,PF,,,,,,,,4,1.866345,,,,,,,,,,,,,,,,,,,,,,,,,,,,5,51,-122,1,0,0,response3disk,1,210,-1,4,1,0,0,rectangle,118,-53,1,0,0,5,5,1,1.91639,-3,-7,1,0,0,0,47,47,159,1,response3disk_3,rectangle,,,,,,,,,,,,,,,,,,,
,,,,,,,,,,,,,,,,,,,,,,,,,,,,,,,,,,,,,,,,,,,5f7b2ce6b2c8250797d6b54d,5ff3ba19cfa0552381150a9a,2021-01-05_03h00.37.353,Colour_Similarity_Experiment_v1,2020.1.2,Win32,60,5ff3a352adaa099f7659f8cc,,,,,,,,,,,,,,,,,,,,PF,,,,,,,,3,2.217665,,,,,,,,,,,,,,,,,,,,,,,,,,,,9,-57,-93,1,0,0,response5disk,1,211,-19,16,1,0,0,rectangle,-19,16,1,0,0,5,5,0,0.00059,-19,16,1,0,0,0,48,48,74,1,,,,,,,,,,,,,,,,,,,,,
,,,,,,,,,,,,,,,,,,,,,,,,,,,,,,,,,,,,,,,,,,,5f7b2ce6b2c8250797d6b54d,5ff3ba19cfa0552381150a9a,2021-01-05_03h00.37.353,Colour_Similarity_Experiment_v1,2020.1.2,Win32,60,5ff3a352adaa099f7659f8cc,,,,,,,,,,,,,,,,,,,,PF,,,,,,,,2,2.149325,,,,,,,,,,,,,,,,,,,,,,,,,,,,9,-91,-49,1,0,0,response5disk,2,212,25,-21,1,0,0,rectangle,25,-21,1,0,0,5,1,0,0.000525,25,-21,1,0,0,0,49,49,157,1,,,,,,,,,,,,,,,,,,,,,
,,,,,,,,,,,,,,,,,,,,,,,,,,,,,,,,,,,,,,,,,,,5f7b2ce6b2c8250797d6b54d,5ff3ba19cfa0552381150a9a,2021-01-05_03h00.37.353,Colour_Similarity_Experiment_v1,2020.1.2,Win32,60,5ff3a352adaa099f7659f8cc,,,,,,,,,,,,,,,,,,,,FF,,,,,,,,2,1.667515,,,,,,,,,,,,,,,,,,,,,,,,,,,,3,-94,-47,1,0,0,response5disk,6,213,3,-8,1,0,0,rectangle,3,-8,1,0,0,5,1,0,0.00058,3,-8,1,0,0,0,50,50,95,1,,,,,,,,,,,,,,,,,,,,,
,,,,,,,,,,,,,,,,,,,,,,,,,,,,,,,,,,,,,,,,,,,5f7b2ce6b2c8250797d6b54d,5ff3ba19cfa0552381150a9a,2021-01-05_03h00.37.353,Colour_Similarity_Experiment_v1,2020.1.2,Win32,60,5ff3a352adaa099f7659f8cc,,,,,,,,,,,,,,,,,,,,PF,,,,,,,,3,2.83327,,,,,,,,,,,,,,,,,,,,,,,,,,,,6,-48,-94,1,0,0,response5disk,8,214,-12,-8,1,0,0,rectangle,-12,-8,1,0,0,5,2,0,0.000555,-12,-8,1,0,0,0,51,51,64,1,,,,,,,,,,,,,,,,,,,,,
,,,,,,,,,,,,,,,,,,,,,,,,,,,,,,,,,,,,,,,,,,,5f7b2ce6b2c8250797d6b54d,5ff3ba19cfa0552381150a9a,2021-01-05_03h00.37.353,Colour_Similarity_Experiment_v1,2020.1.2,Win32,60,5ff3a352adaa099f7659f8cc,,,,,,,,,,,,,,,,,,,,FF,,,,,,,,0,1.083115,,,,,,,,,,,,,,,,,,,,,,,,,,,,1,-45,124,1,0,0,response7disk,1,215,-6,5,1,0,0,rectangle,-6,5,1,0,0,5,5,0,0.00059,-6,5,1,0,0,0,52,52,151,1,,,,,,,,,,,,,,,,,,,,,
,,,,,,,,,,,,,,,,,,,,,,,,,,,,,,,,,,,,,,,,,,,5f7b2ce6b2c8250797d6b54d,5ff3ba19cfa0552381150a9a,2021-01-05_03h00.37.353,Colour_Similarity_Experiment_v1,2020.1.2,Win32,60,5ff3a352adaa099f7659f8cc,,,,,,,,,,,,,,,,,,,,PF,,,,,,,,3,1.99977,,,,,,,,,,,,,,,,,,,,,,,,,,,,4,-47,-118,1,0,0,response5disk,7,216,2,-18,1,0,0,rectangle,2,-18,1,0,0,5,7,0,0.00057,2,-18,1,0,0,0,53,53,38,1,,,,,,,,,,,,,,,,,,,,,
,,,,,,,,,,,,,,,,,,,,,,,,,,,,,,,,,,,,,,,,,,,5f7b2ce6b2c8250797d6b54d,5ff3ba19cfa0552381150a9a,2021-01-05_03h00.37.353,Colour_Similarity_Experiment_v1,2020.1.2,Win32,60,5ff3a352adaa099f7659f8cc,,,,,,,,,,,,,,,,,,,,FF,,,,,,,,5,2.80009,,,,,,,,,,,,,,,,,,,,,,,,,,,,1,89,-48,1,0,0,response3disk,5,217,-18,-2,1,0,0,rectangle,-18,-2,1,0,0,5,5,0,0.000545,-18,-2,1,0,0,0,54,54,82,1,,,,,,,,,,,,,,,,,,,,,
,,,,,,,,,,,,,,,,,,,,,,,,,,,,,,,,,,,,,,,,,,,5f7b2ce6b2c8250797d6b54d,5ff3ba19cfa0552381150a9a,2021-01-05_03h00.37.353,Colour_Similarity_Experiment_v1,2020.1.2,Win32,60,5ff3a352adaa099f7659f8cc,,,,,,,,,,,,,,,,,,,,FF,,,,,,,,5,1.782865,,,,,,,,,,,,,,,,,,,,,,,,,,,,1,92,-31,1,0,0,response3disk,7,218,-6,-3,1,0,0,rectangle,-6,-3,1,0,0,5,5,0,0.00057,-6,-3,1,0,0,0,55,55,137,1,,,,,,,,,,,,,,,,,,,,,
,,,,,,,,,,,,,,,,,,,,,,,,,,,,,,,,,,,,,,,,,,,5f7b2ce6b2c8250797d6b54d,5ff3ba19cfa0552381150a9a,2021-01-05_03h00.37.353,Colour_Similarity_Experiment_v1,2020.1.2,Win32,60,5ff3a352adaa099f7659f8cc,,,,,,,,,,,,,,,,,,,,PF,,,,,,,,3,2.150455,,,,,,,,,,,,,,,,,,,,,,,,,,,,5,-27,-112,1,0,0,response5disk,2,219,12,-1,1,0,0,rectangle,12,-1,1,0,0,5,6,0,0.000565,12,-1,1,0,0,0,56,56,129,1,,,,,,,,,,,,,,,,,,,,,
,,,,,,,,,,,,,,,,,,,,,,,,,,,,,,,,,,,,,,,,,,,5f7b2ce6b2c8250797d6b54d,5ff3ba19cfa0552381150a9a,2021-01-05_03h00.37.353,Colour_Similarity_Experiment_v1,2020.1.2,Win32,60,5ff3a352adaa099f7659f8cc,,,,,,,,,,,,,,,,,,,,PF,,,,,,,,6,2.1662,,,,,,,,,,,,,,,,,,,,,,,,,,,,4,95,52,1,0,0,response1disk,1,220,-10,3,1,0,0,rectangle,-10,3,1,0,0,5,2,0,0.000545,-10,3,1,0,0,0,57,57,115,1,,,,,,,,,,,,,,,,,,,,,
,,,,,,,,,,,,,,,,,,,,,,,,,,,,,,,,,,,,,,,,,,,5f7b2ce6b2c8250797d6b54d,5ff3ba19cfa0552381150a9a,2021-01-05_03h00.37.353,Colour_Similarity_Experiment_v1,2020.1.2,Win32,60,5ff3a352adaa099f7659f8cc,,,,,,,,,,,,,,,,,,,,FF,,,,,,,,3,3.429495,,,,,,,,,,,,,,,,,,,,,,,,,,,,8,-41,-93,1,0,0,response5disk,1,221,-4,-3,1,0,0,rectangle,-4,-3,1,0,0,5,4,0,0.00056,-4,-3,1,0,0,0,58,58,20,1,,,,,,,,,,,,,,,,,,,,,
,,,,,,,,,,,,,,,,,,,,,,,,,,,,,,,,,,,,,,,,,,,5f7b2ce6b2c8250797d6b54d,5ff3ba19cfa0552381150a9a,2021-01-05_03h00.37.353,Colour_Similarity_Experiment_v1,2020.1.2,Win32,60,5ff3a352adaa099f7659f8cc,,,,,,,,,,,,,,,,,,,,FF,,,,,,,,3,2.633465,,,,,,,,,,,,,,,,,,,,,,,,,,,,2,-44,-110,1,0,0,response5disk,4,222,-8,-15,1,0,0,rectangle,-8,-15,1,0,0,5,3,0,0.00054,-8,-15,1,0,0,0,59,59,145,1,,,,,,,,,,,,,,,,,,,,,
,,,,,,,,,,,,,,,,,,,,,,,,,,,,,,,,,,,,,,,,,,,5f7b2ce6b2c8250797d6b54d,5ff3ba19cfa0552381150a9a,2021-01-05_03h00.37.353,Colour_Similarity_Experiment_v1,2020.1.2,Win32,60,5ff3a352adaa099f7659f8cc,,,,,,,,,,,,,,,,,,,,FF,,,,,,,,1,2.33311,,,,,,,,,,,,,,,,,,,,,,,,,,,,5,-109,38,1,0,0,response7disk,4,223,-25,1,1,0,0,rectangle,-25,1,1,0,0,5,5,0,0.000595,-25,1,1,0,0,0,60,60,8,1,,,,,,,,,,,,,,,,,,,,,
,,,,,,,,,,,,,,,,,,,,,,,,,,,,,,,,,,,,,,,,,,,5f7b2ce6b2c8250797d6b54d,5ff3ba19cfa0552381150a9a,2021-01-05_03h00.37.353,Colour_Similarity_Experiment_v1,2020.1.2,Win32,60,5ff3a352adaa099f7659f8cc,,,,,,,,,,,,,,,,,,,,PF,,,,,,,,3,1.99942,,,,,,,,,,,,,,,,,,,,,,,,,,,,2,-39,-112,1,0,0,response5disk,8,224,8,-1,1,0,0,rectangle,8,-1,1,0,0,5,1,0,0.000555,8,-1,1,0,0,0,61,61,52,1,,,,,,,,,,,,,,,,,,,,,
,,,,,,,,,,,,,,,,,,,,,,,,,,,,,,,,,,,,,,,,,,,5f7b2ce6b2c8250797d6b54d,5ff3ba19cfa0552381150a9a,2021-01-05_03h00.37.353,Colour_Similarity_Experiment_v1,2020.1.2,Win32,60,5ff3a352adaa099f7659f8cc,,,,,,,,,,,,,,,,,,,,PF,,,,,,,,6,1.532765,,,,,,,,,,,,,,,,,,,,,,,,,,,,7,95,51,1,0,0,response1disk,2,225,2,5,1,0,0,rectangle,2,5,1,0,0,5,3,0,0.000575,2,5,1,0,0,0,62,62,32,1,,,,,,,,,,,,,,,,,,,,,
,,,,,,,,,,,,,,,,,,,,,,,,,,,,,,,,,,,,,,,,,,,5f7b2ce6b2c8250797d6b54d,5ff3ba19cfa0552381150a9a,2021-01-05_03h00.37.353,Colour_Similarity_Experiment_v1,2020.1.2,Win32,60,5ff3a352adaa099f7659f8cc,,,,,,,,,,,,,,,,,,,,PF,,,,,,,,0,1.450575,,,,,,,,,,,,,,,,,,,,,,,,,,,,6,-47,130,1,0,0,response7disk,6,226,-11,15,1,0,0,rectangle,-11,15,1,0,0,5,4,0,0.00055,-11,15,1,0,0,0,63,63,0,1,,,,,,,,,,,,,,,,,,,,,
,,,,,,,,,,,,,,,,,,,,,,,,,,,,,,,,,,,,,,,,,,,5f7b2ce6b2c8250797d6b54d,5ff3ba19cfa0552381150a9a,2021-01-05_03h00.37.353,Colour_Similarity_Experiment_v1,2020.1.2,Win32,60,5ff3a352adaa099f7659f8cc,,,,,,,,,,,,,,,,,,,,FF,,,,,,,,5,1.58229,,,,,,,,,,,,,,,,,,,,,,,,,,,,8,83,-36,1,0,0,response3disk,4,227,-21,-1,1,0,0,rectangle,-21,-1,1,0,0,5,3,0,0.000575,-21,-1,1,0,0,0,64,64,88,1,,,,,,,,,,,,,,,,,,,,,
,,,,,,,,,,,,,,,,,,,,,,,,,,,,,,,,,,,,,,,,,,,5f7b2ce6b2c8250797d6b54d,5ff3ba19cfa0552381150a9a,2021-01-05_03h00.37.353,Colour_Similarity_Experiment_v1,2020.1.2,Win32,60,5ff3a352adaa099f7659f8cc,,,,,,,,,,,,,,,,,,,,FF,,,,,,,,4,3.48348,,,,,,,,,,,,,,,,,,,,,,,,,,,,5,21,-117,1,0,0,response3disk,7,228,-11,3,1,0,0,rectangle,-11,3,1,0,0,5,4,0,0.00056,-11,3,1,0,0,0,65,65,7,1,,,,,,,,,,,,,,,,,,,,,
,,,,,,,,,,,,,,,,,,,,,,,,,,,,,,,,,,,,,,,,,,,5f7b2ce6b2c8250797d6b54d,5ff3ba19cfa0552381150a9a,2021-01-05_03h00.37.353,Colour_Similarity_Experiment_v1,2020.1.2,Win32,60,5ff3a352adaa099f7659f8cc,,,,,,,,,,,,,,,,,,,,FF,,,,,,,,5,2.067685,,,,,,,,,,,,,,,,,,,,,,,,,,,,8,97,-25,1,0,0,response3disk,2,229,10,-5,1,0,0,rectangle,10,-5,1,0,0,5,3,0,0.00056,10,-5,1,0,0,0,66,66,22,1,,,,,,,,,,,,,,,,,,,,,
,,,,,,,,,,,,,,,,,,,,,,,,,,,,,,,,,,,,,,,,,,,5f7b2ce6b2c8250797d6b54d,5ff3ba19cfa0552381150a9a,2021-01-05_03h00.37.353,Colour_Similarity_Experiment_v1,2020.1.2,Win32,60,5ff3a352adaa099f7659f8cc,,,,,,,,,,,,,,,,,,,,PF,,,,,,,,5,1.66678,,,,,,,,,,,,,,,,,,,,,,,,,,,,1,94,-42,1,0,0,response3disk,6,230,11,7,1,0,0,rectangle,11,7,1,0,0,5,3,0,0.000535,11,7,1,0,0,0,67,67,144,1,,,,,,,,,,,,,,,,,,,,,
,,,,,,,,,,,,,,,,,,,,,,,,,,,,,,,,,,,,,,,,,,,5f7b2ce6b2c8250797d6b54d,5ff3ba19cfa0552381150a9a,2021-01-05_03h00.37.353,Colour_Similarity_Experiment_v1,2020.1.2,Win32,60,5ff3a352adaa099f7659f8cc,,,,,,,,,,,,,,,,,,,,FF,,,,,,,,0,1.7826,,,,,,,,,,,,,,,,,,,,,,,,,,,,5,-54,128,1,0,0,response7disk,5,231,2,-1,1,0,0,rectangle,2,-1,1,0,0,5,4,0,0.00056,2,-1,1,0,0,0,68,68,19,1,,,,,,,,,,,,,,,,,,,,,
,,,,,,,,,,,,,,,,,,,,,,,,,,,,,,,,,,,,,,,,,,,5f7b2ce6b2c8250797d6b54d,5ff3ba19cfa0552381150a9a,2021-01-05_03h00.37.353,Colour_Similarity_Experiment_v1,2020.1.2,Win32,60,5ff3a352adaa099f7659f8cc,,,,,,,,,,,,,,,,,,,,FF,,,,,,,,1,1.049565,,,,,,,,,,,,,,,,,,,,,,,,,,,,8,-131,48,1,0,0,response7disk,9,232,-12,0,1,0,0,rectangle,-12,0,1,0,0,5,4,0,0.000535,-12,0,1,0,0,0,69,69,105,1,,,,,,,,,,,,,,,,,,,,,
,,,,,,,,,,,,,,,,,,,,,,,,,,,,,,,,,,,,,,,,,,,5f7b2ce6b2c8250797d6b54d,5ff3ba19cfa0552381150a9a,2021-01-05_03h00.37.353,Colour_Similarity_Experiment_v1,2020.1.2,Win32,60,5ff3a352adaa099f7659f8cc,,,,,,,,,,,,,,,,,,,,PF,,,,,,,,2,2.06669,,,,,,,,,,,,,,,,,,,,,,,,,,,,1,-101,-45,1,0,0,response5disk,2,233,-4,-8,1,0,0,rectangle,-4,-8,1,0,0,5,1,0,0.00052,-4,-8,1,0,0,0,70,70,24,1,,,,,,,,,,,,,,,,,,,,,
,,,,,,,,,,,,,,,,,,,,,,,,,,,,,,,,,,,,,,,,,,,5f7b2ce6b2c8250797d6b54d,5ff3ba19cfa0552381150a9a,2021-01-05_03h00.37.353,Colour_Similarity_Experiment_v1,2020.1.2,Win32,60,5ff3a352adaa099f7659f8cc,,,,,,,,,,,,,,,,,,,,FF,,,,,,,,2,1.999425,,,,,,,,,,,,,,,,,,,,,,,,,,,,2,-92,-34,1,0,0,response5disk,9,234,-6,7,1,0,0,rectangle,-6,7,1,0,0,5,4,0,0.00055,-6,7,1,0,0,0,71,71,72,1,,,,,,,,,,,,,,,,,,,,,
,,,,,,,,,,,,,,,,,,,,,,,,,,,,,,,,,,,,,,,,,,,5f7b2ce6b2c8250797d6b54d,5ff3ba19cfa0552381150a9a,2021-01-05_03h00.37.353,Colour_Similarity_Experiment_v1,2020.1.2,Win32,60,5ff3a352adaa099f7659f8cc,,,,,,,,,,,,,,,,,,,,PF,,,,,,,,1,1.34955,,,,,,,,,,,,,,,,,,,,,,,,,,,,5,-104,42,1,0,0,response7disk,6,235,-13,0,1,0,0,rectangle,-13,0,1,0,0,5,0,0,0.00055,-13,0,1,0,0,0,72,72,103,1,,,,,,,,,,,,,,,,,,,,,
,,,,,,,,,,,,,,,,,,,,,,,,,,,,,,,,,,,,,,,,,,,5f7b2ce6b2c8250797d6b54d,5ff3ba19cfa0552381150a9a,2021-01-05_03h00.37.353,Colour_Similarity_Experiment_v1,2020.1.2,Win32,60,5ff3a352adaa099f7659f8cc,,,,,,,,,,,,,,,,,,,,PF,,,,,,,,4,4.00025,,,,,,,,,,,,,,,,,,,,,,,,,,,,9,39,-107,1,0,0,response3disk,4,236,10,1,1,0,0,rectangle,10,1,1,0,0,5,6,0,0.00054,10,1,1,0,0,0,73,73,114,1,,,,,,,,,,,,,,,,,,,,,
,,,,,,,,,,,,,,,,,,,,,,,,,,,,,,,,,,,,,,,,,,,5f7b2ce6b2c8250797d6b54d,5ff3ba19cfa0552381150a9a,2021-01-05_03h00.37.353,Colour_Similarity_Experiment_v1,2020.1.2,Win32,60,5ff3a352adaa099f7659f8cc,,,,,,,,,,,,,,,,,,,,PF,,,,,,,,4,2.55042,,,,,,,,,,,,,,,,,,,,,,,,,,,,7,45,-87,1,0,0,response3disk,4,237,7,-2,1,0,0,rectangle,7,-2,1,0,0,5,0,0,0.00058,7,-2,1,0,0,0,74,74,43,1,,,,,,,,,,,,,,,,,,,,,
,,,,,,,,,,,,,,,,,,,,,,,,,,,,,,,,,,,,,,,,,,,5f7b2ce6b2c8250797d6b54d,5ff3ba19cfa0552381150a9a,2021-01-05_03h00.37.353,Colour_Similarity_Experiment_v1,2020.1.2,Win32,60,5ff3a352adaa099f7659f8cc,,,,,,,,,,,,,,,,,,,,PF,,,,,,,,5,2.04859,,,,,,,,,,,,,,,,,,,,,,,,,,,,5,95,-48,1,0,0,response3disk,9,238,2,-6,1,0,0,rectangle,111,-35,1,0,0,5,5,1,1.90089,-1,-5,1,0,0,0,75,75,136,1,response3disk_3,rectangle,,,,,,,,,,,,,,,,,,,
