key_resp.keys,key_resp.rt,key_resp_16.keys,key_resp_16.rt,key_resp_2.keys,key_resp_2.rt,X Scale,ratio_pxpermm,screen_size_x,screen_size_y,testsize,key_resp_3.keys,key_resp_3.rt,key_resp_4.keys,key_resp_4.rt,line_size,key_resp_5.keys,key_resp_5.rt,key_resp_6.keys,key_resp_6.rt,key_resp_8.keys,key_resp_8.rt,key_resp_7.keys,key_resp_7.rt,key_resp_12.keys,key_resp_12.rt,key_resp_11.keys,key_resp_11.rt,key_resp_18.keys,key_resp_18.rt,key_resp_21.keys,key_resp_21.rt,key_resp_13.keys,key_resp_13.rt,key_resp_19.keys,key_resp_19.rt,ballposx,viewer_distance,trials.thisRepN,trials.thisTrialN,trials.thisN,trials.thisIndex,trials.ran,participant,session,date,expName,psychopyVersion,OS,frameRate,study_id,viewerdistancecm,DVA_to_distance,radius_F,radius_P,r_F,R_P,key_resp_20.keys,key_resp_20.rt,key_resp_14.keys,key_resp_14.rt,key_resp_15.keys,key_resp_15.rt,key_resp_17.keys,key_resp_17.rt,key_resp_9.keys,key_resp_9.rt,key_resp_10.keys,key_resp_10.rt,Colour_1,Ecc,mouse_5.x,mouse_5.y,mouse_5.leftButton,mouse_5.midButton,mouse_5.rightButton,mouse_5.clicked_name,Colour_2,similarity,response_time,mouse_10.x,mouse_10.y,mouse_10.leftButton,mouse_10.midButton,mouse_10.rightButton,mouse_10.clicked_name,mouse_7.x,mouse_7.y,mouse_7.leftButton,mouse_7.midButton,mouse_7.rightButton,catchnumberprac,mouse_6.x,mouse_6.y,mouse_6.leftButton,mouse_6.midButton,mouse_6.rightButton,duringprac.thisRepN,duringprac.thisTrialN,duringprac.thisN,duringprac.thisIndex,duringprac.ran,mouse_7.clicked_name,mouse_6.clicked_name,key_resp_22.keys,key_resp_22.rt,Colour1,mouse.x,mouse.y,mouse.leftButton,mouse.midButton,mouse.rightButton,mouse.clicked_name,Colour2,trialnumber,mouse_2.x,mouse_2.y,mouse_2.leftButton,mouse_2.midButton,mouse_2.rightButton,mouse_2.clicked_name,mouse_3.x,mouse_3.y,mouse_3.leftButton,mouse_3.midButton,mouse_3.rightButton,catchresponse,catchnumber,Catch,response_time_catch,mouse_11.x,mouse_11.y,mouse_11.leftButton,mouse_11.midButton,mouse_11.rightButton,trials_2.thisRepN,trials_2.thisTrialN,trials_2.thisN,trials_2.thisIndex,trials_2.ran,mouse_3.clicked_name,mouse_11.clicked_name,trials_3.thisRepN,trials_3.thisTrialN,trials_3.thisN,trials_3.thisIndex,trials_3.ran,answer1,rt1,answer2,rt2,answer3,rt3,answer4,rt4,answer5,rt5,answer6,rt6,answer7,rt7
space,0.866415,space,0.83008,space,2.601715,45.1,4.51,340.5764967,191.5742794,1536,space,1.976885,space,2.33651,90.2,space,11.47563,space,1.024355,space,8.688855,space,6.36405,space,7.45339,space,7.426535,space,9.19741,space,7.63697,space,7.87363,return,23.23025,-799.488,1305.824733,0,0,0,0,1,5fa44fa36ad9c1039f9988e1,5ff3a3de3986cc99928e6dda,2021-01-04_23h42.00.873,Colour_Similarity_Experiment_v1,2020.1.2,Win32,60,5ff3a352adaa099f7659f8cc,,,,,,,,,,,,,,,,,,,,,,,,,,,,,,,,,,,,,,,,,,,,,,,,,,,,,,,,,,,,,,,,,,,,,,,,,,,,,,,,,,,,,,,,,,,,,,,,,,,,,,,,,,,,,,
,,,,,,,,,,,,,,,,,,,,,,,,,,,,,,,,,,return,6.32763,172.8,407.8485723,1,0,1,0,1,5fa44fa36ad9c1039f9988e1,5ff3a3de3986cc99928e6dda,2021-01-04_23h42.00.873,Colour_Similarity_Experiment_v1,2020.1.2,Win32,60,5ff3a352adaa099f7659f8cc,,,,,,,,,,,,,,,,,,,,,,,,,,,,,,,,,,,,,,,,,,,,,,,,,,,,,,,,,,,,,,,,,,,,,,,,,,,,,,,,,,,,,,,,,,,,,,,,,,,,,,,,,,,,,,
,,,,,,,,,,,,,,,,,,,,,,,,,,,,,,,,,,return,13.41631,-799.488,1305.824733,2,0,2,0,1,5fa44fa36ad9c1039f9988e1,5ff3a3de3986cc99928e6dda,2021-01-04_23h42.00.873,Colour_Similarity_Experiment_v1,2020.1.2,Win32,60,5ff3a352adaa099f7659f8cc,,,,,,,,,,,,,,,,,,,,,,,,,,,,,,,,,,,,,,,,,,,,,,,,,,,,,,,,,,,,,,,,,,,,,,,,,,,,,,,,,,,,,,,,,,,,,,,,,,,,,,,,,,,,,,
,,,,,,,,,,,,,,,,,,,,,,,,,,,,,,,,,,return,9.926855,-799.488,1305.824733,3,0,3,0,1,5fa44fa36ad9c1039f9988e1,5ff3a3de3986cc99928e6dda,2021-01-04_23h42.00.873,Colour_Similarity_Experiment_v1,2020.1.2,Win32,60,5ff3a352adaa099f7659f8cc,,,,,,,,,,,,,,,,,,,,,,,,,,,,,,,,,,,,,,,,,,,,,,,,,,,,,,,,,,,,,,,,,,,,,,,,,,,,,,,,,,,,,,,,,,,,,,,,,,,,,,,,,,,,,,
,,,,,,,,,,,,,,,,,,,,,,,,,,,,,,,,,,return,9.959985,-799.488,1305.824733,4,0,4,0,1,5fa44fa36ad9c1039f9988e1,5ff3a3de3986cc99928e6dda,2021-01-04_23h42.00.873,Colour_Similarity_Experiment_v1,2020.1.2,Win32,60,5ff3a352adaa099f7659f8cc,,,,,,,,,,,,,,,,,,,,,,,,,,,,,,,,,,,,,,,,,,,,,,,,,,,,,,,,,,,,,,,,,,,,,,,,,,,,,,,,,,,,,,,,,,,,,,,,,,,,,,,,,,,,,,
,,,,,,,,,,,,,,,,,,,,,,,,,,,,,,,,,,,,,,,,,,,5fa44fa36ad9c1039f9988e1,5ff3a3de3986cc99928e6dda,2021-01-04_23h42.00.873,Colour_Similarity_Experiment_v1,2020.1.2,Win32,60,5ff3a352adaa099f7659f8cc,131,22.86612688,154.6893483,1031.262322,103.1262322,464.068045,space,2.74592,space,6.12106,space,36.47359,space,11.214195,space,13.837265,space,3.261585,9,PF,61.60001236,113.5999953,1,0,0,response1disk_5,5,7,7.92889,-7.999988675,8.799993694,1,0,0,rectangle_8,-7.999988675,8.799993694,1,0,0,2,-7.999988675,8.799993694,1,0,0,0,0,0,4,1,,,,,,,,,,,,,,,,,,,,,,,,,,,,,,,,,,,,,,,,,,,,,,,,,,,,,,,,,,,
,,,,,,,,,,,,,,,,,,,,,,,,,,,,,,,,,,,,,,,,,,,5fa44fa36ad9c1039f9988e1,5ff3a3de3986cc99928e6dda,2021-01-04_23h42.00.873,Colour_Similarity_Experiment_v1,2020.1.2,Win32,60,5ff3a352adaa099f7659f8cc,,,,,,,,,,,,,,,,,,,9,FF,-32.79998904,94.39999497,1,0,0,response7disk_5,9,0,3.833605,14.40001166,-5.600006521,1,0,0,rectangle_8,14.40001166,-5.600006521,1,0,0,2,14.40001166,-5.600006521,1,0,0,0,1,1,3,1,,,,,,,,,,,,,,,,,,,,,,,,,,,,,,,,,,,,,,,,,,,,,,,,,,,,,,,,,,,
,,,,,,,,,,,,,,,,,,,,,,,,,,,,,,,,,,,,,,,,,,,5fa44fa36ad9c1039f9988e1,5ff3a3de3986cc99928e6dda,2021-01-04_23h42.00.873,Colour_Similarity_Experiment_v1,2020.1.2,Win32,60,5ff3a352adaa099f7659f8cc,,,,,,,,,,,,,,,,,,,9,FF,21.60006059,104.7999951,1,0,0,response1disk_5,5,7,1.547625,1.600060296,6.399993658,1,0,0,rectangle_8,-81.59998977,-40.00000703,1,0,0,2,0.800011456,8.799993694,1,0,0,0,2,2,0,1,response5disk_7,rectangle_4,,,,,,,,,,,,,,,,,,,,,,,,,,,,,,,,,,,,,,,,,,,,,,,,,,,,,,,,,
,,,,,,,,,,,,,,,,,,,,,,,,,,,,,,,,,,,,,,,,,,,5fa44fa36ad9c1039f9988e1,5ff3a3de3986cc99928e6dda,2021-01-04_23h42.00.873,Colour_Similarity_Experiment_v1,2020.1.2,Win32,60,5ff3a352adaa099f7659f8cc,,,,,,,,,,,,,,,,,,,3,PF,46.40001214,82.39999479,1,0,0,response1disk_5,8,7,4.20337,8.000011563,5.599993646,1,0,0,rectangle_8,8.000011563,5.599993646,1,0,0,2,8.000011563,5.599993646,1,0,0,0,3,3,1,1,,,,,,,,,,,,,,,,,,,,,,,,,,,,,,,,,,,,,,,,,,,,,,,,,,,,,,,,,,,
,,,,,,,,,,,,,,,,,,,,,,,,,,,,,,,,,,,,,,,,,,,5fa44fa36ad9c1039f9988e1,5ff3a3de3986cc99928e6dda,2021-01-04_23h42.00.873,Colour_Similarity_Experiment_v1,2020.1.2,Win32,60,5ff3a352adaa099f7659f8cc,,,,,,,,,,,,,,,,,,,3,FF,-37.59998912,-80.80000764,1,0,0,response5disk_5,2,3,5.46672,14.40001166,12.79999375,1,0,0,rectangle_8,14.40001166,12.79999375,1,0,0,2,14.40001166,12.79999375,1,0,0,0,4,4,5,1,,,,,,,,,,,,,,,,,,,,,,,,,,,,,,,,,,,,,,,,,,,,,,,,,,,,,,,,,,,
,,,,,,,,,,,,,,,,,,,,,,,,,,,,,,,,,,,,,,,,,,,5fa44fa36ad9c1039f9988e1,5ff3a3de3986cc99928e6dda,2021-01-04_23h42.00.873,Colour_Similarity_Experiment_v1,2020.1.2,Win32,60,5ff3a352adaa099f7659f8cc,,,,,,,,,,,,,,,,,,,3,PF,-57.59998941,70.39999461,1,0,0,response7disk_5,4,0,2.107295,-3.999988616,-9.60000658,1,0,0,rectangle_8,-3.999988616,-9.60000658,1,0,0,2,-3.999988616,-9.60000658,1,0,0,0,5,5,6,1,,,,,,,,,,,,,,,,,,,,,,,,,,,,,,,,,,,,,,,,,,,,,,,,,,,,,,,,,,,
,,,,,,,,,,,,,,,,,,,,,,,,,,,,,,,,,,,,,,,,,,,5fa44fa36ad9c1039f9988e1,5ff3a3de3986cc99928e6dda,2021-01-04_23h42.00.873,Colour_Similarity_Experiment_v1,2020.1.2,Win32,60,5ff3a352adaa099f7659f8cc,,,,,,,,,,,,,,,,,,,8,PF,-35.99998909,71.99999464,1,0,0,response7disk_5,8,0,7.053475,-23.1999889,4.799993634,1,0,0,rectangle_8,-23.1999889,4.799993634,1,0,0,2,-23.1999889,4.799993634,1,0,0,0,6,6,2,1,,,,,,,,,,,,,,,,,,,,,,,,,,,,,,,,,,,,,,,,,,,,,,,,,,,,,,,,,,,
,,,,,,,,,,,,,,,,,,,,,,,,,,,,,,,,,,,,,,,,,,,5fa44fa36ad9c1039f9988e1,5ff3a3de3986cc99928e6dda,2021-01-04_23h42.00.873,Colour_Similarity_Experiment_v1,2020.1.2,Win32,60,5ff3a352adaa099f7659f8cc,,,,,,,,,,,,,,,,,,,,PF,,,,,,,,0,8.171655,,,,,,,,,,,,,,,,,,,,,,,,,space,3.042945,9,-48.79998928,128.7999955,1,0,0,response7disk,2,1,-14.39993994,2.399993598,1,0,0,rectangle,-14.39993994,2.399993598,1,0,0,,2,0,0.001335,-14.39993994,2.399993598,1,0,0,0,0,0,157,1,,,,,,,,,,,,,,,,,,,,,
,,,,,,,,,,,,,,,,,,,,,,,,,,,,,,,,,,,,,,,,,,,5fa44fa36ad9c1039f9988e1,5ff3a3de3986cc99928e6dda,2021-01-04_23h42.00.873,Colour_Similarity_Experiment_v1,2020.1.2,Win32,60,5ff3a352adaa099f7659f8cc,,,,,,,,,,,,,,,,,,,,FF,,,,,,,,0,13.04132,,,,,,,,,,,,,,,,,,,,,,,,,,,4,-47.19998926,113.5999953,1,0,0,response7disk,6,2,1.600060296,0.799993575,1,0,0,rectangle,1.600060296,0.799993575,1,0,0,,7,0,0.00107,1.600060296,0.799993575,1,0,0,0,1,1,122,1,,,,,,,,,,,,,,,,,,,,,
,,,,,,,,,,,,,,,,,,,,,,,,,,,,,,,,,,,,,,,,,,,5fa44fa36ad9c1039f9988e1,5ff3a3de3986cc99928e6dda,2021-01-04_23h42.00.873,Colour_Similarity_Experiment_v1,2020.1.2,Win32,60,5ff3a352adaa099f7659f8cc,,,,,,,,,,,,,,,,,,,,PF,,,,,,,,7,2.35946,,,,,,,,,,,,,,,,,,,,,,,,,,,8,41.60006089,91.99999493,1,0,0,response1disk,5,3,6.400011539,0.799993575,1,0,0,rectangle,6.400011539,0.799993575,1,0,0,,3,0,0.000695,6.400011539,0.799993575,1,0,0,0,2,2,98,1,,,,,,,,,,,,,,,,,,,,,
,,,,,,,,,,,,,,,,,,,,,,,,,,,,,,,,,,,,,,,,,,,5fa44fa36ad9c1039f9988e1,5ff3a3de3986cc99928e6dda,2021-01-04_23h42.00.873,Colour_Similarity_Experiment_v1,2020.1.2,Win32,60,5ff3a352adaa099f7659f8cc,,,,,,,,,,,,,,,,,,,,PF,,,,,,,,7,4.20622,,,,,,,,,,,,,,,,,,,,,,,,,,,9,43.20001209,87.19997045,1,0,0,response1disk,6,4,-1.59998858,9.599993706,1,0,0,rectangle,-1.59998858,9.599993706,1,0,0,,0,0,0.000725,-1.59998858,9.599993706,1,0,0,0,3,3,148,1,,,,,,,,,,,,,,,,,,,,,
,,,,,,,,,,,,,,,,,,,,,,,,,,,,,,,,,,,,,,,,,,,5fa44fa36ad9c1039f9988e1,5ff3a3de3986cc99928e6dda,2021-01-04_23h42.00.873,Colour_Similarity_Experiment_v1,2020.1.2,Win32,60,5ff3a352adaa099f7659f8cc,,,,,,,,,,,,,,,,,,,,FF,,,,,,,,0,1.499545,,,,,,,,,,,,,,,,,,,,,,,,,,,5,-28.79998899,84.79999483,1,0,0,response7disk,5,5,-2.399939764,0.799993575,1,0,0,rectangle,-2.399939764,0.799993575,1,0,0,,2,0,0.000695,-2.399939764,0.799993575,1,0,0,0,4,4,19,1,,,,,,,,,,,,,,,,,,,,,
,,,,,,,,,,,,,,,,,,,,,,,,,,,,,,,,,,,,,,,,,,,5fa44fa36ad9c1039f9988e1,5ff3a3de3986cc99928e6dda,2021-01-04_23h42.00.873,Colour_Similarity_Experiment_v1,2020.1.2,Win32,60,5ff3a352adaa099f7659f8cc,,,,,,,,,,,,,,,,,,,,PF,,,,,,,,7,4.795505,,,,,,,,,,,,,,,,,,,,,,,,,,,8,39.20001203,95.19997057,1,0,0,response1disk,3,6,-10.39993988,1.599993587,1,0,0,rectangle,-10.39993988,1.599993587,1,0,0,,5,0,0.0007,-10.39993988,1.599993587,1,0,0,0,5,5,71,1,,,,,,,,,,,,,,,,,,,,,
,,,,,,,,,,,,,,,,,,,,,,,,,,,,,,,,,,,,,,,,,,,5fa44fa36ad9c1039f9988e1,5ff3a3de3986cc99928e6dda,2021-01-04_23h42.00.873,Colour_Similarity_Experiment_v1,2020.1.2,Win32,60,5ff3a352adaa099f7659f8cc,,,,,,,,,,,,,,,,,,,,FF,,,,,,,,0,2.660965,,,,,,,,,,,,,,,,,,,,,,,,,,,5,-31.19998902,75.9999947,1,0,0,response7disk,3,7,-8.799988687,-6.4373E-06,1,0,0,rectangle,-8.799988687,-6.4373E-06,1,0,0,,3,0,0.001945,-8.799988687,-6.4373E-06,1,0,0,0,6,6,25,1,,,,,,,,,,,,,,,,,,,,,
,,,,,,,,,,,,,,,,,,,,,,,,,,,,,,,,,,,,,,,,,,,5fa44fa36ad9c1039f9988e1,5ff3a3de3986cc99928e6dda,2021-01-04_23h42.00.873,Colour_Similarity_Experiment_v1,2020.1.2,Win32,60,5ff3a352adaa099f7659f8cc,,,,,,,,,,,,,,,,,,,,FF,,,,,,,,7,2.011565,,,,,,,,,,,,,,,,,,,,,,,,,,,9,27.20001185,98.39999503,1,0,0,response1disk,7,8,15.20001167,-4.800006509,1,0,0,rectangle,15.20001167,-4.800006509,1,0,0,,5,0,0.0009,15.20001167,-4.800006509,1,0,0,0,7,7,100,1,,,,,,,,,,,,,,,,,,,,,
,,,,,,,,,,,,,,,,,,,,,,,,,,,,,,,,,,,,,,,,,,,5fa44fa36ad9c1039f9988e1,5ff3a3de3986cc99928e6dda,2021-01-04_23h42.00.873,Colour_Similarity_Experiment_v1,2020.1.2,Win32,60,5ff3a352adaa099f7659f8cc,,,,,,,,,,,,,,,,,,,,PF,,,,,,,,0,1.771315,,,,,,,,,,,,,,,,,,,,,,,,,,,9,-48.79998928,79.19997033,1,0,0,response7disk,1,9,-21.59998888,-0.800006449,1,0,0,rectangle,-21.59998888,-0.800006449,1,0,0,,0,0,0.001,-21.59998888,-0.800006449,1,0,0,0,8,8,74,1,,,,,,,,,,,,,,,,,,,,,
,,,,,,,,,,,,,,,,,,,,,,,,,,,,,,,,,,,,,,,,,,,5fa44fa36ad9c1039f9988e1,5ff3a3de3986cc99928e6dda,2021-01-04_23h42.00.873,Colour_Similarity_Experiment_v1,2020.1.2,Win32,60,5ff3a352adaa099f7659f8cc,,,,,,,,,,,,,,,,,,,,FF,,,,,,,,0,1.70347,,,,,,,,,,,,,,,,,,,,,,,,,,,8,-18.39994,93.59999496,1,0,0,response7disk,8,10,-11.19998872,-8.800006568,1,0,0,rectangle,-11.19998872,-8.800006568,1,0,0,,4,0,0.000705,-11.19998872,-8.800006568,1,0,0,0,9,9,48,1,,,,,,,,,,,,,,,,,,,,,
,,,,,,,,,,,,,,,,,,,,,,,,,,,,,,,,,,,,,,,,,,,5fa44fa36ad9c1039f9988e1,5ff3a3de3986cc99928e6dda,2021-01-04_23h42.00.873,Colour_Similarity_Experiment_v1,2020.1.2,Win32,60,5ff3a352adaa099f7659f8cc,,,,,,,,,,,,,,,,,,,,FF,,,,,,,,7,1.367135,,,,,,,,,,,,,,,,,,,,,,,,,,,8,41.60006089,99.19997063,1,0,0,response1disk,6,11,12.80001163,10.39999372,1,0,0,rectangle,12.80001163,10.39999372,1,0,0,,7,0,0.000685,12.80001163,10.39999372,1,0,0,0,10,10,37,1,,,,,,,,,,,,,,,,,,,,,
,,,,,,,,,,,,,,,,,,,,,,,,,,,,,,,,,,,,,,,,,,,5fa44fa36ad9c1039f9988e1,5ff3a3de3986cc99928e6dda,2021-01-04_23h42.00.873,Colour_Similarity_Experiment_v1,2020.1.2,Win32,60,5ff3a352adaa099f7659f8cc,,,,,,,,,,,,,,,,,,,,PF,,,,,,,,7,2.429925,,,,,,,,,,,,,,,,,,,,,,,,,,,2,28.00001186,66.39999455,1,0,0,response1disk,8,12,-11.19998872,6.399993658,1,0,0,rectangle,-11.19998872,6.399993658,1,0,0,,3,0,0.000705,-11.19998872,6.399993658,1,0,0,0,11,11,52,1,,,,,,,,,,,,,,,,,,,,,
,,,,,,,,,,,,,,,,,,,,,,,,,,,,,,,,,,,,,,,,,,,5fa44fa36ad9c1039f9988e1,5ff3a3de3986cc99928e6dda,2021-01-04_23h42.00.873,Colour_Similarity_Experiment_v1,2020.1.2,Win32,60,5ff3a352adaa099f7659f8cc,,,,,,,,,,,,,,,,,,,,FF,,,,,,,,7,1.758695,,,,,,,,,,,,,,,,,,,,,,,,,,,6,78.40001261,99.19997063,1,0,0,response1disk,1,13,20.00001174,13.59999377,1,0,0,rectangle,20.00001174,13.59999377,1,0,0,,0,0,0.00075,20.00001174,13.59999377,1,0,0,0,12,12,5,1,,,,,,,,,,,,,,,,,,,,,
,,,,,,,,,,,,,,,,,,,,,,,,,,,,,,,,,,,,,,,,,,,5fa44fa36ad9c1039f9988e1,5ff3a3de3986cc99928e6dda,2021-01-04_23h42.00.873,Colour_Similarity_Experiment_v1,2020.1.2,Win32,60,5ff3a352adaa099f7659f8cc,,,,,,,,,,,,,,,,,,,,PF,,,,,,,,7,1.81717,,,,,,,,,,,,,,,,,,,,,,,,,,,9,55.20001227,111.9999952,1,0,0,response1disk,4,14,17.60006053,14.39999378,1,0,0,rectangle,17.60006053,14.39999378,1,0,0,,0,0,0.000635,17.60006053,14.39999378,1,0,0,0,13,13,114,1,,,,,,,,,,,,,,,,,,,,,
,,,,,,,,,,,,,,,,,,,,,,,,,,,,,,,,,,,,,,,,,,,5fa44fa36ad9c1039f9988e1,5ff3a3de3986cc99928e6dda,2021-01-04_23h42.00.873,Colour_Similarity_Experiment_v1,2020.1.2,Win32,60,5ff3a352adaa099f7659f8cc,,,,,,,,,,,,,,,,,,,,PF,,,,,,,,0,2.42759,,,,,,,,,,,,,,,,,,,,,,,,,,,8,-48.79998928,106.3999951,1,0,0,response7disk,9,15,-1.59998858,3.19999361,1,0,0,rectangle,-1.59998858,3.19999361,1,0,0,,7,0,0.00073,-1.59998858,3.19999361,1,0,0,0,14,14,42,1,,,,,,,,,,,,,,,,,,,,,
,,,,,,,,,,,,,,,,,,,,,,,,,,,,,,,,,,,,,,,,,,,5fa44fa36ad9c1039f9988e1,5ff3a3de3986cc99928e6dda,2021-01-04_23h42.00.873,Colour_Similarity_Experiment_v1,2020.1.2,Win32,60,5ff3a352adaa099f7659f8cc,,,,,,,,,,,,,,,,,,,,FF,,,,,,,,4,2.35812,,,,,,,,,,,,,,,,,,,,,,,,,,,5,38.40001202,-56.00000727,1,0,0,response3disk,2,16,12.80001163,-0.800006449,1,0,0,rectangle,86.40001273,41.59999418,1,0,0,6,6,1,4.053105,19.20001173,-9.60000658,1,0,0,0,15,15,55,1,response1disk_3,rectangle,,,,,,,,,,,,,,,,,,,
,,,,,,,,,,,,,,,,,,,,,,,,,,,,,,,,,,,,,,,,,,,5fa44fa36ad9c1039f9988e1,5ff3a3de3986cc99928e6dda,2021-01-04_23h42.00.873,Colour_Similarity_Experiment_v1,2020.1.2,Win32,60,5ff3a352adaa099f7659f8cc,,,,,,,,,,,,,,,,,,,,FF,,,,,,,,0,2.082275,,,,,,,,,,,,,,,,,,,,,,,,,,,3,-43.1999892,107.1999707,1,0,0,response7disk,4,17,-2.399939764,-7.200006545,1,0,0,rectangle,-2.399939764,-7.200006545,1,0,0,6,4,0,0.00082,-2.399939764,-7.200006545,1,0,0,0,16,16,110,1,,,,,,,,,,,,,,,,,,,,,
,,,,,,,,,,,,,,,,,,,,,,,,,,,,,,,,,,,,,,,,,,,5fa44fa36ad9c1039f9988e1,5ff3a3de3986cc99928e6dda,2021-01-04_23h42.00.873,Colour_Similarity_Experiment_v1,2020.1.2,Win32,60,5ff3a352adaa099f7659f8cc,,,,,,,,,,,,,,,,,,,,FF,,,,,,,,0,3.344195,,,,,,,,,,,,,,,,,,,,,,,,,,,1,-37.59998912,61.59999448,1,0,0,response7disk,3,18,-14.39993994,3.19999361,1,0,0,rectangle,-14.39993994,3.19999361,1,0,0,6,4,0,0.000725,-14.39993994,3.19999361,1,0,0,0,17,17,99,1,,,,,,,,,,,,,,,,,,,,,
,,,,,,,,,,,,,,,,,,,,,,,,,,,,,,,,,,,,,,,,,,,5fa44fa36ad9c1039f9988e1,5ff3a3de3986cc99928e6dda,2021-01-04_23h42.00.873,Colour_Similarity_Experiment_v1,2020.1.2,Win32,60,5ff3a352adaa099f7659f8cc,,,,,,,,,,,,,,,,,,,,FF,,,,,,,,3,2.34299,,,,,,,,,,,,,,,,,,,,,,,,,,,7,-44.79998922,-67.20000744,1,0,0,response5disk,4,19,-9.599988699,-5.600006521,1,0,0,rectangle,-9.599988699,-5.600006521,1,0,0,6,6,0,0.00081,-9.599988699,-5.600006521,1,0,0,0,18,18,158,1,,,,,,,,,,,,,,,,,,,,,
,,,,,,,,,,,,,,,,,,,,,,,,,,,,,,,,,,,,,,,,,,,5fa44fa36ad9c1039f9988e1,5ff3a3de3986cc99928e6dda,2021-01-04_23h42.00.873,Colour_Similarity_Experiment_v1,2020.1.2,Win32,60,5ff3a352adaa099f7659f8cc,,,,,,,,,,,,,,,,,,,,PF,,,,,,,,3,4.355865,,,,,,,,,,,,,,,,,,,,,,,,,,,1,-25.59998894,-80.00000763,1,0,0,response5disk,8,20,-11.19998872,-3.200006485,1,0,0,rectangle,-11.19998872,-3.200006485,1,0,0,6,1,0,0.000685,-11.19998872,-3.200006485,1,0,0,0,19,19,65,1,,,,,,,,,,,,,,,,,,,,,
,,,,,,,,,,,,,,,,,,,,,,,,,,,,,,,,,,,,,,,,,,,5fa44fa36ad9c1039f9988e1,5ff3a3de3986cc99928e6dda,2021-01-04_23h42.00.873,Colour_Similarity_Experiment_v1,2020.1.2,Win32,60,5ff3a352adaa099f7659f8cc,,,,,,,,,,,,,,,,,,,,PF,,,,,,,,7,1.81468,,,,,,,,,,,,,,,,,,,,,,,,,,,5,27.20001185,83.99999481,1,0,0,response1disk,8,21,8.800011575,8.799993694,1,0,0,rectangle,8.800011575,8.799993694,1,0,0,6,6,0,0.000765,8.800011575,8.799993694,1,0,0,0,20,20,149,1,,,,,,,,,,,,,,,,,,,,,
,,,,,,,,,,,,,,,,,,,,,,,,,,,,,,,,,,,,,,,,,,,5fa44fa36ad9c1039f9988e1,5ff3a3de3986cc99928e6dda,2021-01-04_23h42.00.873,Colour_Similarity_Experiment_v1,2020.1.2,Win32,60,5ff3a352adaa099f7659f8cc,,,,,,,,,,,,,,,,,,,,FF,,,,,,,,7,2.13137,,,,,,,,,,,,,,,,,,,,,,,,,,,5,40.80001205,117.5999953,1,0,0,response1disk,8,22,0.800011456,3.999993622,1,0,0,rectangle,0.800011456,3.999993622,1,0,0,6,4,0,0.001675,0.800011456,3.999993622,1,0,0,0,21,21,16,1,,,,,,,,,,,,,,,,,,,,,
,,,,,,,,,,,,,,,,,,,,,,,,,,,,,,,,,,,,,,,,,,,5fa44fa36ad9c1039f9988e1,5ff3a3de3986cc99928e6dda,2021-01-04_23h42.00.873,Colour_Similarity_Experiment_v1,2020.1.2,Win32,60,5ff3a352adaa099f7659f8cc,,,,,,,,,,,,,,,,,,,,PF,,,,,,,,7,5.760905,,,,,,,,,,,,,,,,,,,,,,,,,,,7,60.00001234,100.7999951,1,0,0,response1disk,6,23,19.20001173,-6.4373E-06,1,0,0,rectangle,19.20001173,-6.4373E-06,1,0,0,6,4,0,0.00087,19.20001173,-6.4373E-06,1,0,0,0,22,22,29,1,,,,,,,,,,,,,,,,,,,,,
,,,,,,,,,,,,,,,,,,,,,,,,,,,,,,,,,,,,,,,,,,,5fa44fa36ad9c1039f9988e1,5ff3a3de3986cc99928e6dda,2021-01-04_23h42.00.873,Colour_Similarity_Experiment_v1,2020.1.2,Win32,60,5ff3a352adaa099f7659f8cc,,,,,,,,,,,,,,,,,,,,PF,,,,,,,,0,2.35211,,,,,,,,,,,,,,,,,,,,,,,,,,,6,-35.19998908,103.1999707,1,0,0,response7disk,4,24,-20.79998887,2.399993598,1,0,0,rectangle,-20.79998887,2.399993598,1,0,0,6,1,0,0.00071,-20.79998887,2.399993598,1,0,0,0,23,23,33,1,,,,,,,,,,,,,,,,,,,,,
,,,,,,,,,,,,,,,,,,,,,,,,,,,,,,,,,,,,,,,,,,,5fa44fa36ad9c1039f9988e1,5ff3a3de3986cc99928e6dda,2021-01-04_23h42.00.873,Colour_Similarity_Experiment_v1,2020.1.2,Win32,60,5ff3a352adaa099f7659f8cc,,,,,,,,,,,,,,,,,,,,FF,,,,,,,,7,1.59979,,,,,,,,,,,,,,,,,,,,,,,,,,,9,84.0000127,108.7999952,1,0,0,response1disk,3,25,1.600060296,14.39999378,1,0,0,rectangle,1.600060296,14.39999378,1,0,0,6,3,0,0.00067,1.600060296,14.39999378,1,0,0,0,24,24,141,1,,,,,,,,,,,,,,,,,,,,,
,,,,,,,,,,,,,,,,,,,,,,,,,,,,,,,,,,,,,,,,,,,5fa44fa36ad9c1039f9988e1,5ff3a3de3986cc99928e6dda,2021-01-04_23h42.00.873,Colour_Similarity_Experiment_v1,2020.1.2,Win32,60,5ff3a352adaa099f7659f8cc,,,,,,,,,,,,,,,,,,,,PF,,,,,,,,3,2.133835,,,,,,,,,,,,,,,,,,,,,,,,,,,3,-39.99998915,-87.20000774,1,0,0,response5disk,2,26,4.000011504,-6.400006533,1,0,0,rectangle,39.20001203,-71.2000075,1,0,0,4,4,1,3.255155,-15.19998878,2.399993598,1,0,0,0,25,25,36,1,response3disk_3,rectangle,,,,,,,,,,,,,,,,,,,
,,,,,,,,,,,,,,,,,,,,,,,,,,,,,,,,,,,,,,,,,,,5fa44fa36ad9c1039f9988e1,5ff3a3de3986cc99928e6dda,2021-01-04_23h42.00.873,Colour_Similarity_Experiment_v1,2020.1.2,Win32,60,5ff3a352adaa099f7659f8cc,,,,,,,,,,,,,,,,,,,,PF,,,,,,,,0,1.542395,,,,,,,,,,,,,,,,,,,,,,,,,,,4,-47.99998927,78.39999473,1,0,0,response7disk,5,27,-31.99998903,-0.800006449,1,0,0,rectangle,-31.99998903,-0.800006449,1,0,0,4,0,0,0.00082,-31.99998903,-0.800006449,1,0,0,0,26,26,49,1,,,,,,,,,,,,,,,,,,,,,
,,,,,,,,,,,,,,,,,,,,,,,,,,,,,,,,,,,,,,,,,,,5fa44fa36ad9c1039f9988e1,5ff3a3de3986cc99928e6dda,2021-01-04_23h42.00.873,Colour_Similarity_Experiment_v1,2020.1.2,Win32,60,5ff3a352adaa099f7659f8cc,,,,,,,,,,,,,,,,,,,,FF,,,,,,,,0,3.458005,,,,,,,,,,,,,,,,,,,,,,,,,,,7,-68.79998958,108.7999952,1,0,0,response7disk,3,28,13.60006047,6.399993658,1,0,0,rectangle,13.60006047,6.399993658,1,0,0,4,4,0,0.00084,13.60006047,6.399993658,1,0,0,0,27,27,73,1,,,,,,,,,,,,,,,,,,,,,
,,,,,,,,,,,,,,,,,,,,,,,,,,,,,,,,,,,,,,,,,,,5fa44fa36ad9c1039f9988e1,5ff3a3de3986cc99928e6dda,2021-01-04_23h42.00.873,Colour_Similarity_Experiment_v1,2020.1.2,Win32,60,5ff3a352adaa099f7659f8cc,,,,,,,,,,,,,,,,,,,,FF,,,,,,,,7,2.382025,,,,,,,,,,,,,,,,,,,,,,,,,,,5,64.80001241,101.5999951,1,0,0,response1disk,1,29,7.200011551,8.799993694,1,0,0,rectangle,7.200011551,8.799993694,1,0,0,4,1,0,0.00073,7.200011551,8.799993694,1,0,0,0,28,28,131,1,,,,,,,,,,,,,,,,,,,,,
,,,,,,,,,,,,,,,,,,,,,,,,,,,,,,,,,,,,,,,,,,,5fa44fa36ad9c1039f9988e1,5ff3a3de3986cc99928e6dda,2021-01-04_23h42.00.873,Colour_Similarity_Experiment_v1,2020.1.2,Win32,60,5ff3a352adaa099f7659f8cc,,,,,,,,,,,,,,,,,,,,FF,,,,,,,,7,2.41004,,,,,,,,,,,,,,,,,,,,,,,,,,,1,47.20001215,75.9999947,1,0,0,response1disk,7,30,-6.399939823,11.19999373,1,0,0,rectangle,-6.399939823,11.19999373,1,0,0,4,2,0,0.00195,-6.399939823,11.19999373,1,0,0,0,29,29,137,1,,,,,,,,,,,,,,,,,,,,,
,,,,,,,,,,,,,,,,,,,,,,,,,,,,,,,,,,,,,,,,,,,5fa44fa36ad9c1039f9988e1,5ff3a3de3986cc99928e6dda,2021-01-04_23h42.00.873,Colour_Similarity_Experiment_v1,2020.1.2,Win32,60,5ff3a352adaa099f7659f8cc,,,,,,,,,,,,,,,,,,,,PF,,,,,,,,0,2.112525,,,,,,,,,,,,,,,,,,,,,,,,,,,3,-23.1999889,101.5999951,1,0,0,response7disk,7,31,4.000011504,-4.000006497,1,0,0,rectangle,4.000011504,-4.000006497,1,0,0,4,1,0,0.000795,4.000011504,-4.000006497,1,0,0,0,30,30,41,1,,,,,,,,,,,,,,,,,,,,,
,,,,,,,,,,,,,,,,,,,,,,,,,,,,,,,,,,,,,,,,,,,5fa44fa36ad9c1039f9988e1,5ff3a3de3986cc99928e6dda,2021-01-04_23h42.00.873,Colour_Similarity_Experiment_v1,2020.1.2,Win32,60,5ff3a352adaa099f7659f8cc,,,,,,,,,,,,,,,,,,,,PF,,,,,,,,7,1.45296,,,,,,,,,,,,,,,,,,,,,,,,,,,7,53.60001224,103.9999951,1,0,0,response1disk,2,32,15.20001167,3.999993622,1,0,0,rectangle,15.20001167,3.999993622,1,0,0,4,0,0,0.000845,15.20001167,3.999993622,1,0,0,0,31,31,32,1,,,,,,,,,,,,,,,,,,,,,
,,,,,,,,,,,,,,,,,,,,,,,,,,,,,,,,,,,,,,,,,,,5fa44fa36ad9c1039f9988e1,5ff3a3de3986cc99928e6dda,2021-01-04_23h42.00.873,Colour_Similarity_Experiment_v1,2020.1.2,Win32,60,5ff3a352adaa099f7659f8cc,,,,,,,,,,,,,,,,,,,,FF,,,,,,,,7,5.024655,,,,,,,,,,,,,,,,,,,,,,,,,,,8,28.00001186,105.5999951,1,0,0,response1disk,3,33,-17.59998882,11.99999374,1,0,0,rectangle,-17.59998882,11.99999374,1,0,0,4,5,0,0.0007,-17.59998882,11.99999374,1,0,0,0,32,32,154,1,,,,,,,,,,,,,,,,,,,,,
,,,,,,,,,,,,,,,,,,,,,,,,,,,,,,,,,,,,,,,,,,,5fa44fa36ad9c1039f9988e1,5ff3a3de3986cc99928e6dda,2021-01-04_23h42.00.873,Colour_Similarity_Experiment_v1,2020.1.2,Win32,60,5ff3a352adaa099f7659f8cc,,,,,,,,,,,,,,,,,,,,FF,,,,,,,,7,1.62947,,,,,,,,,,,,,,,,,,,,,,,,,,,7,72.00001252,74.39999467,1,0,0,response1disk,5,34,1.14441E-05,11.99999374,1,0,0,rectangle,1.14441E-05,11.99999374,1,0,0,4,4,0,0.000705,1.14441E-05,11.99999374,1,0,0,0,33,33,156,1,,,,,,,,,,,,,,,,,,,,,
,,,,,,,,,,,,,,,,,,,,,,,,,,,,,,,,,,,,,,,,,,,5fa44fa36ad9c1039f9988e1,5ff3a3de3986cc99928e6dda,2021-01-04_23h42.00.873,Colour_Similarity_Experiment_v1,2020.1.2,Win32,60,5ff3a352adaa099f7659f8cc,,,,,,,,,,,,,,,,,,,,PF,,,,,,,,7,1.729325,,,,,,,,,,,,,,,,,,,,,,,,,,,7,40.00001204,87.99999487,1,0,0,response1disk,8,35,6.400011539,10.39999372,1,0,0,rectangle,6.400011539,10.39999372,1,0,0,4,6,0,0.000755,6.400011539,10.39999372,1,0,0,0,34,34,140,1,,,,,,,,,,,,,,,,,,,,,
,,,,,,,,,,,,,,,,,,,,,,,,,,,,,,,,,,,,,,,,,,,5fa44fa36ad9c1039f9988e1,5ff3a3de3986cc99928e6dda,2021-01-04_23h42.00.873,Colour_Similarity_Experiment_v1,2020.1.2,Win32,60,5ff3a352adaa099f7659f8cc,,,,,,,,,,,,,,,,,,,,PF,,,,,,,,7,1.495865,,,,,,,,,,,,,,,,,,,,,,,,,,,4,94.40001285,103.1999707,1,0,0,response1disk,9,36,1.14441E-05,3.999993622,1,0,0,rectangle,1.14441E-05,3.999993622,1,0,0,4,1,0,0.00149,1.14441E-05,3.999993622,1,0,0,0,35,35,75,1,,,,,,,,,,,,,,,,,,,,,
,,,,,,,,,,,,,,,,,,,,,,,,,,,,,,,,,,,,,,,,,,,5fa44fa36ad9c1039f9988e1,5ff3a3de3986cc99928e6dda,2021-01-04_23h42.00.873,Colour_Similarity_Experiment_v1,2020.1.2,Win32,60,5ff3a352adaa099f7659f8cc,,,,,,,,,,,,,,,,,,,,PF,,,,,,,,7,1.21209,,,,,,,,,,,,,,,,,,,,,,,,,,,4,26.40001184,83.19997039,1,0,0,response1disk,8,37,-4.799988627,4.799993634,1,0,0,rectangle,-4.799988627,4.799993634,1,0,0,4,1,0,0.000725,-4.799988627,4.799993634,1,0,0,0,36,36,124,1,,,,,,,,,,,,,,,,,,,,,
,,,,,,,,,,,,,,,,,,,,,,,,,,,,,,,,,,,,,,,,,,,5fa44fa36ad9c1039f9988e1,5ff3a3de3986cc99928e6dda,2021-01-04_23h42.00.873,Colour_Similarity_Experiment_v1,2020.1.2,Win32,60,5ff3a352adaa099f7659f8cc,,,,,,,,,,,,,,,,,,,,PF,,,,,,,,7,1.198585,,,,,,,,,,,,,,,,,,,,,,,,,,,1,30.4000119,70.39999461,1,0,0,response1disk,6,38,12.80001163,12.79999375,1,0,0,rectangle,12.80001163,12.79999375,1,0,0,4,0,0,0.001045,12.80001163,12.79999375,1,0,0,0,37,37,144,1,,,,,,,,,,,,,,,,,,,,,
,,,,,,,,,,,,,,,,,,,,,,,,,,,,,,,,,,,,,,,,,,,5fa44fa36ad9c1039f9988e1,5ff3a3de3986cc99928e6dda,2021-01-04_23h42.00.873,Colour_Similarity_Experiment_v1,2020.1.2,Win32,60,5ff3a352adaa099f7659f8cc,,,,,,,,,,,,,,,,,,,,PF,,,,,,,,7,1.34583,,,,,,,,,,,,,,,,,,,,,,,,,,,1,17.60006053,63.99999452,1,0,0,response1disk,7,39,-7.199988663,4.799993634,1,0,0,rectangle,-7.199988663,4.799993634,1,0,0,4,4,0,0.00066,-7.199988663,4.799993634,1,0,0,0,38,38,150,1,,,,,,,,,,,,,,,,,,,,,
,,,,,,,,,,,,,,,,,,,,,,,,,,,,,,,,,,,,,,,,,,,5fa44fa36ad9c1039f9988e1,5ff3a3de3986cc99928e6dda,2021-01-04_23h42.00.873,Colour_Similarity_Experiment_v1,2020.1.2,Win32,60,5ff3a352adaa099f7659f8cc,,,,,,,,,,,,,,,,,,,,PF,,,,,,,,7,1.36389,,,,,,,,,,,,,,,,,,,,,,,,,,,5,39.20001203,80.79999477,1,0,0,response1disk,1,40,9.600060415,6.399993658,1,0,0,rectangle,55.20001227,-71.2000075,1,0,0,4,4,1,2.665195,0.800011456,7.999993682,1,0,0,0,39,39,159,1,response3disk_3,rectangle,,,,,,,,,,,,,,,,,,,
,,,,,,,,,,,,,,,,,,,,,,,,,,,,,,,,,,,,,,,,,,,5fa44fa36ad9c1039f9988e1,5ff3a3de3986cc99928e6dda,2021-01-04_23h42.00.873,Colour_Similarity_Experiment_v1,2020.1.2,Win32,60,5ff3a352adaa099f7659f8cc,,,,,,,,,,,,,,,,,,,,FF,,,,,,,,0,1.78267,,,,,,,,,,,,,,,,,,,,,,,,,,,7,-67.19998956,109.5999952,1,0,0,response7disk,7,41,-18.39994,4.799993634,1,0,0,rectangle,-18.39994,4.799993634,1,0,0,4,5,0,0.0008,-18.39994,4.799993634,1,0,0,0,40,40,34,1,,,,,,,,,,,,,,,,,,,,,
,,,,,,,,,,,,,,,,,,,,,,,,,,,,,,,,,,,,,,,,,,,5fa44fa36ad9c1039f9988e1,5ff3a3de3986cc99928e6dda,2021-01-04_23h42.00.873,Colour_Similarity_Experiment_v1,2020.1.2,Win32,60,5ff3a352adaa099f7659f8cc,,,,,,,,,,,,,,,,,,,,FF,,,,,,,,0,1.88981,,,,,,,,,,,,,,,,,,,,,,,,,,,9,-43.99998921,93.59999496,1,0,0,response7disk,1,42,10.4000116,-3.200006485,1,0,0,rectangle,10.4000116,-3.200006485,1,0,0,4,0,0,0.000795,10.4000116,-3.200006485,1,0,0,0,41,41,111,1,,,,,,,,,,,,,,,,,,,,,
,,,,,,,,,,,,,,,,,,,,,,,,,,,,,,,,,,,,,,,,,,,5fa44fa36ad9c1039f9988e1,5ff3a3de3986cc99928e6dda,2021-01-04_23h42.00.873,Colour_Similarity_Experiment_v1,2020.1.2,Win32,60,5ff3a352adaa099f7659f8cc,,,,,,,,,,,,,,,,,,,,PF,,,,,,,,3,1.59281,,,,,,,,,,,,,,,,,,,,,,,,,,,2,-38.3999403,-58.40000731,1,0,0,response5disk,3,43,-29.599989,-8.800006568,1,0,0,rectangle,-29.599989,-8.800006568,1,0,0,4,3,0,0.00088,-29.599989,-8.800006568,1,0,0,0,42,42,69,1,,,,,,,,,,,,,,,,,,,,,
,,,,,,,,,,,,,,,,,,,,,,,,,,,,,,,,,,,,,,,,,,,5fa44fa36ad9c1039f9988e1,5ff3a3de3986cc99928e6dda,2021-01-04_23h42.00.873,Colour_Similarity_Experiment_v1,2020.1.2,Win32,60,5ff3a352adaa099f7659f8cc,,,,,,,,,,,,,,,,,,,,PF,,,,,,,,7,1.50648,,,,,,,,,,,,,,,,,,,,,,,,,,,2,35.20001197,62.39999449,1,0,0,response1disk,6,44,1.14441E-05,-8.000006557,1,0,0,rectangle,1.14441E-05,-8.000006557,1,0,0,4,7,0,0.00081,1.14441E-05,-8.000006557,1,0,0,0,43,43,113,1,,,,,,,,,,,,,,,,,,,,,
,,,,,,,,,,,,,,,,,,,,,,,,,,,,,,,,,,,,,,,,,,,5fa44fa36ad9c1039f9988e1,5ff3a3de3986cc99928e6dda,2021-01-04_23h42.00.873,Colour_Similarity_Experiment_v1,2020.1.2,Win32,60,5ff3a352adaa099f7659f8cc,,,,,,,,,,,,,,,,,,,,FF,,,,,,,,0,1.79392,,,,,,,,,,,,,,,,,,,,,,,,,,,3,-27.19998896,66.39999455,1,0,0,response7disk,7,45,-13.59998876,8.799993694,1,0,0,rectangle,-13.59998876,8.799993694,1,0,0,4,3,0,0.000765,-13.59998876,8.799993694,1,0,0,0,44,44,118,1,,,,,,,,,,,,,,,,,,,,,
,,,,,,,,,,,,,,,,,,,,,,,,,,,,,,,,,,,,,,,,,,,5fa44fa36ad9c1039f9988e1,5ff3a3de3986cc99928e6dda,2021-01-04_23h42.00.873,Colour_Similarity_Experiment_v1,2020.1.2,Win32,60,5ff3a352adaa099f7659f8cc,,,,,,,,,,,,,,,,,,,,PF,,,,,,,,7,1.4285,,,,,,,,,,,,,,,,,,,,,,,,,,,1,39.20001203,79.19997033,1,0,0,response1disk,4,46,-5.599988639,-4.000006497,1,0,0,rectangle,-5.599988639,-4.000006497,1,0,0,4,4,0,0.000725,-5.599988639,-4.000006497,1,0,0,0,45,45,139,1,,,,,,,,,,,,,,,,,,,,,
,,,,,,,,,,,,,,,,,,,,,,,,,,,,,,,,,,,,,,,,,,,5fa44fa36ad9c1039f9988e1,5ff3a3de3986cc99928e6dda,2021-01-04_23h42.00.873,Colour_Similarity_Experiment_v1,2020.1.2,Win32,60,5ff3a352adaa099f7659f8cc,,,,,,,,,,,,,,,,,,,,FF,,,,,,,,0,1.442875,,,,,,,,,,,,,,,,,,,,,,,,,,,3,-23.99998891,57.59999442,1,0,0,response7disk,6,47,-12.79998875,9.599993706,1,0,0,rectangle,-12.79998875,9.599993706,1,0,0,4,7,0,0.000925,-12.79998875,9.599993706,1,0,0,0,46,46,95,1,,,,,,,,,,,,,,,,,,,,,
,,,,,,,,,,,,,,,,,,,,,,,,,,,,,,,,,,,,,,,,,,,5fa44fa36ad9c1039f9988e1,5ff3a3de3986cc99928e6dda,2021-01-04_23h42.00.873,Colour_Similarity_Experiment_v1,2020.1.2,Win32,60,5ff3a352adaa099f7659f8cc,,,,,,,,,,,,,,,,,,,,PF,,,,,,,,7,1.31468,,,,,,,,,,,,,,,,,,,,,,,,,,,5,36.80001199,71.99999464,1,0,0,response1disk,3,48,1.14441E-05,0.799993575,1,0,0,rectangle,1.14441E-05,0.799993575,1,0,0,4,7,0,0.000705,1.14441E-05,0.799993575,1,0,0,0,47,47,109,1,,,,,,,,,,,,,,,,,,,,,
,,,,,,,,,,,,,,,,,,,,,,,,,,,,,,,,,,,,,,,,,,,5fa44fa36ad9c1039f9988e1,5ff3a3de3986cc99928e6dda,2021-01-04_23h42.00.873,Colour_Similarity_Experiment_v1,2020.1.2,Win32,60,5ff3a352adaa099f7659f8cc,,,,,,,,,,,,,,,,,,,,PF,,,,,,,,0,1.364195,,,,,,,,,,,,,,,,,,,,,,,,,,,3,-35.99998909,57.59999442,1,0,0,response7disk,5,49,-19.19998884,-4.000006497,1,0,0,rectangle,-19.19998884,-4.000006497,1,0,0,4,7,0,0.00098,-19.19998884,-4.000006497,1,0,0,0,48,48,66,1,,,,,,,,,,,,,,,,,,,,,
,,,,,,,,,,,,,,,,,,,,,,,,,,,,,,,,,,,,,,,,,,,5fa44fa36ad9c1039f9988e1,5ff3a3de3986cc99928e6dda,2021-01-04_23h42.00.873,Colour_Similarity_Experiment_v1,2020.1.2,Win32,60,5ff3a352adaa099f7659f8cc,,,,,,,,,,,,,,,,,,,,FF,,,,,,,,7,1.758535,,,,,,,,,,,,,,,,,,,,,,,,,,,3,34.40001196,71.99999464,1,0,0,response1disk,1,50,0.800011456,8.799993694,1,0,0,rectangle,0.800011456,8.799993694,1,0,0,4,0,0,0.00096,0.800011456,8.799993694,1,0,0,0,49,49,125,1,,,,,,,,,,,,,,,,,,,,,
,,,,,,,,,,,,,,,,,,,,,,,,,,,,,,,,,,,,,,,,,,,5fa44fa36ad9c1039f9988e1,5ff3a3de3986cc99928e6dda,2021-01-04_23h42.00.873,Colour_Similarity_Experiment_v1,2020.1.2,Win32,60,5ff3a352adaa099f7659f8cc,,,,,,,,,,,,,,,,,,,,PF,,,,,,,,0,1.377855,,,,,,,,,,,,,,,,,,,,,,,,,,,9,-32.79998904,61.59999448,1,0,0,response7disk,5,51,-12.79998875,12.79999375,1,0,0,rectangle,-12.79998875,12.79999375,1,0,0,4,6,0,0.001785,-12.79998875,12.79999375,1,0,0,0,50,50,134,1,,,,,,,,,,,,,,,,,,,,,
,,,,,,,,,,,,,,,,,,,,,,,,,,,,,,,,,,,,,,,,,,,5fa44fa36ad9c1039f9988e1,5ff3a3de3986cc99928e6dda,2021-01-04_23h42.00.873,Colour_Similarity_Experiment_v1,2020.1.2,Win32,60,5ff3a352adaa099f7659f8cc,,,,,,,,,,,,,,,,,,,,FF,,,,,,,,0,1.853195,,,,,,,,,,,,,,,,,,,,,,,,,,,1,-33.59998906,102.3999951,1,0,0,response7disk,9,52,3.200011492,1.599993587,1,0,0,rectangle,3.200011492,1.599993587,1,0,0,4,4,0,0.00079,3.200011492,1.599993587,1,0,0,0,51,51,123,1,,,,,,,,,,,,,,,,,,,,,
,,,,,,,,,,,,,,,,,,,,,,,,,,,,,,,,,,,,,,,,,,,5fa44fa36ad9c1039f9988e1,5ff3a3de3986cc99928e6dda,2021-01-04_23h42.00.873,Colour_Similarity_Experiment_v1,2020.1.2,Win32,60,5ff3a352adaa099f7659f8cc,,,,,,,,,,,,,,,,,,,,FF,,,,,,,,7,1.49585,,,,,,,,,,,,,,,,,,,,,,,,,,,5,21.60006059,107.1999707,1,0,0,response1disk,9,53,3.200011492,3.999993622,1,0,0,rectangle,3.200011492,3.999993622,1,0,0,4,3,0,0.00098,3.200011492,3.999993622,1,0,0,0,52,52,61,1,,,,,,,,,,,,,,,,,,,,,
,,,,,,,,,,,,,,,,,,,,,,,,,,,,,,,,,,,,,,,,,,,5fa44fa36ad9c1039f9988e1,5ff3a3de3986cc99928e6dda,2021-01-04_23h42.00.873,Colour_Similarity_Experiment_v1,2020.1.2,Win32,60,5ff3a352adaa099f7659f8cc,,,,,,,,,,,,,,,,,,,,PF,,,,,,,,7,1.49391,,,,,,,,,,,,,,,,,,,,,,,,,,,5,40.80001205,83.19997039,1,0,0,response1disk,9,54,12.00001162,1.599993587,1,0,0,rectangle,37.60006083,-63.20000738,1,0,0,4,4,1,1.77735,-8.799988687,3.999993622,1,0,0,0,53,53,136,1,response3disk_3,rectangle,,,,,,,,,,,,,,,,,,,
,,,,,,,,,,,,,,,,,,,,,,,,,,,,,,,,,,,,,,,,,,,5fa44fa36ad9c1039f9988e1,5ff3a3de3986cc99928e6dda,2021-01-04_23h42.00.873,Colour_Similarity_Experiment_v1,2020.1.2,Win32,60,5ff3a352adaa099f7659f8cc,,,,,,,,,,,,,,,,,,,,PF,,,,,,,,7,1.46927,,,,,,,,,,,,,,,,,,,,,,,,,,,7,43.20001209,76.79999471,1,0,0,response1disk,1,55,-7.199988663,-6.4373E-06,1,0,0,rectangle,-7.199988663,-6.4373E-06,1,0,0,4,3,0,0.000675,-7.199988663,-6.4373E-06,1,0,0,0,54,54,53,1,,,,,,,,,,,,,,,,,,,,,
,,,,,,,,,,,,,,,,,,,,,,,,,,,,,,,,,,,,,,,,,,,5fa44fa36ad9c1039f9988e1,5ff3a3de3986cc99928e6dda,2021-01-04_23h42.00.873,Colour_Similarity_Experiment_v1,2020.1.2,Win32,60,5ff3a352adaa099f7659f8cc,,,,,,,,,,,,,,,,,,,,FF,,,,,,,,7,1.38361,,,,,,,,,,,,,,,,,,,,,,,,,,,1,37.60006083,72.79999465,1,0,0,response1disk,5,56,21.60006059,7.999993682,1,0,0,rectangle,21.60006059,7.999993682,1,0,0,4,0,0,0.000895,21.60006059,7.999993682,1,0,0,0,55,55,82,1,,,,,,,,,,,,,,,,,,,,,
,,,,,,,,,,,,,,,,,,,,,,,,,,,,,,,,,,,,,,,,,,,5fa44fa36ad9c1039f9988e1,5ff3a3de3986cc99928e6dda,2021-01-04_23h42.00.873,Colour_Similarity_Experiment_v1,2020.1.2,Win32,60,5ff3a352adaa099f7659f8cc,,,,,,,,,,,,,,,,,,,,PF,,,,,,,,7,1.378655,,,,,,,,,,,,,,,,,,,,,,,,,,,8,53.60001224,81.59999478,1,0,0,response1disk,7,57,-6.399939823,-5.600006521,1,0,0,rectangle,-6.399939823,-5.600006521,1,0,0,4,1,0,0.000735,-6.399939823,-5.600006521,1,0,0,0,56,56,23,1,,,,,,,,,,,,,,,,,,,,,
,,,,,,,,,,,,,,,,,,,,,,,,,,,,,,,,,,,,,,,,,,,5fa44fa36ad9c1039f9988e1,5ff3a3de3986cc99928e6dda,2021-01-04_23h42.00.873,Colour_Similarity_Experiment_v1,2020.1.2,Win32,60,5ff3a352adaa099f7659f8cc,,,,,,,,,,,,,,,,,,,,PF,,,,,,,,0,1.47626,,,,,,,,,,,,,,,,,,,,,,,,,,,4,-39.99998915,83.99999481,1,0,0,response7disk,3,58,0.800011456,-6.4373E-06,1,0,0,rectangle,0.800011456,-6.4373E-06,1,0,0,4,0,0,0.000665,0.800011456,-6.4373E-06,1,0,0,0,57,57,89,1,,,,,,,,,,,,,,,,,,,,,
,,,,,,,,,,,,,,,,,,,,,,,,,,,,,,,,,,,,,,,,,,,5fa44fa36ad9c1039f9988e1,5ff3a3de3986cc99928e6dda,2021-01-04_23h42.00.873,Colour_Similarity_Experiment_v1,2020.1.2,Win32,60,5ff3a352adaa099f7659f8cc,,,,,,,,,,,,,,,,,,,,FF,,,,,,,,3,1.81122,,,,,,,,,,,,,,,,,,,,,,,,,,,3,-47.19998926,-78.40000761,1,0,0,response5disk,2,59,-15.19998878,-4.000006497,1,0,0,rectangle,-15.19998878,-4.000006497,1,0,0,4,3,0,0.000775,-15.19998878,-4.000006497,1,0,0,0,58,58,93,1,,,,,,,,,,,,,,,,,,,,,
,,,,,,,,,,,,,,,,,,,,,,,,,,,,,,,,,,,,,,,,,,,5fa44fa36ad9c1039f9988e1,5ff3a3de3986cc99928e6dda,2021-01-04_23h42.00.873,Colour_Similarity_Experiment_v1,2020.1.2,Win32,60,5ff3a352adaa099f7659f8cc,,,,,,,,,,,,,,,,,,,,FF,,,,,,,,3,1.756495,,,,,,,,,,,,,,,,,,,,,,,,,,,4,-49.5999893,-58.40000731,1,0,0,response5disk,2,60,-7.199988663,4.799993634,1,0,0,rectangle,-7.199988663,4.799993634,1,0,0,4,1,0,0.00082,-7.199988663,4.799993634,1,0,0,0,59,59,13,1,,,,,,,,,,,,,,,,,,,,,
,,,,,,,,,,,,,,,,,,,,,,,,,,,,,,,,,,,,,,,,,,,5fa44fa36ad9c1039f9988e1,5ff3a3de3986cc99928e6dda,2021-01-04_23h42.00.873,Colour_Similarity_Experiment_v1,2020.1.2,Win32,60,5ff3a352adaa099f7659f8cc,,,,,,,,,,,,,,,,,,,,FF,,,,,,,,0,1.81297,,,,,,,,,,,,,,,,,,,,,,,,,,,4,-35.19998908,67.99999458,1,0,0,response7disk,3,61,7.200011551,-5.600006521,1,0,0,rectangle,7.200011551,-5.600006521,1,0,0,4,0,0,0.000855,7.200011551,-5.600006521,1,0,0,0,60,60,77,1,,,,,,,,,,,,,,,,,,,,,
,,,,,,,,,,,,,,,,,,,,,,,,,,,,,,,,,,,,,,,,,,,5fa44fa36ad9c1039f9988e1,5ff3a3de3986cc99928e6dda,2021-01-04_23h42.00.873,Colour_Similarity_Experiment_v1,2020.1.2,Win32,60,5ff3a352adaa099f7659f8cc,,,,,,,,,,,,,,,,,,,,PF,,,,,,,,0,1.39238,,,,,,,,,,,,,,,,,,,,,,,,,,,5,-29.599989,61.59999448,1,0,0,response7disk,5,62,-7.999988675,-4.800006509,1,0,0,rectangle,-7.999988675,-4.800006509,1,0,0,4,6,0,0.002625,-7.999988675,-4.800006509,1,0,0,0,61,61,94,1,,,,,,,,,,,,,,,,,,,,,
,,,,,,,,,,,,,,,,,,,,,,,,,,,,,,,,,,,,,,,,,,,5fa44fa36ad9c1039f9988e1,5ff3a3de3986cc99928e6dda,2021-01-04_23h42.00.873,Colour_Similarity_Experiment_v1,2020.1.2,Win32,60,5ff3a352adaa099f7659f8cc,,,,,,,,,,,,,,,,,,,,FF,,,,,,,,0,1.438985,,,,,,,,,,,,,,,,,,,,,,,,,,,3,-38.3999403,67.19997015,1,0,0,response7disk,3,63,-15.99998879,8.799993694,1,0,0,rectangle,-15.99998879,8.799993694,1,0,0,4,1,0,0.000795,-15.99998879,8.799993694,1,0,0,0,62,62,68,1,,,,,,,,,,,,,,,,,,,,,
,,,,,,,,,,,,,,,,,,,,,,,,,,,,,,,,,,,,,,,,,,,5fa44fa36ad9c1039f9988e1,5ff3a3de3986cc99928e6dda,2021-01-04_23h42.00.873,Colour_Similarity_Experiment_v1,2020.1.2,Win32,60,5ff3a352adaa099f7659f8cc,,,,,,,,,,,,,,,,,,,,PF,,,,,,,,7,2.04579,,,,,,,,,,,,,,,,,,,,,,,,,,,8,54.40001225,71.19997021,1,0,0,response1disk,2,64,14.40001166,-6.4373E-06,1,0,0,rectangle,14.40001166,-6.4373E-06,1,0,0,4,4,0,0.029535,14.40001166,-6.4373E-06,1,0,0,0,63,63,83,1,,,,,,,,,,,,,,,,,,,,,
,,,,,,,,,,,,,,,,,,,,,,,,,,,,,,,,,,,,,,,,,,,5fa44fa36ad9c1039f9988e1,5ff3a3de3986cc99928e6dda,2021-01-04_23h42.00.873,Colour_Similarity_Experiment_v1,2020.1.2,Win32,60,5ff3a352adaa099f7659f8cc,,,,,,,,,,,,,,,,,,,,PF,,,,,,,,7,2.125255,,,,,,,,,,,,,,,,,,,,,,,,,,,2,70.40001249,99.99999505,1,0,0,response1disk,7,65,8.800011575,7.999993682,1,0,0,rectangle,8.800011575,7.999993682,1,0,0,4,0,0,0.00097,8.800011575,7.999993682,1,0,0,0,64,64,107,1,,,,,,,,,,,,,,,,,,,,,
,,,,,,,,,,,,,,,,,,,,,,,,,,,,,,,,,,,,,,,,,,,5fa44fa36ad9c1039f9988e1,5ff3a3de3986cc99928e6dda,2021-01-04_23h42.00.873,Colour_Similarity_Experiment_v1,2020.1.2,Win32,60,5ff3a352adaa099f7659f8cc,,,,,,,,,,,,,,,,,,,,FF,,,,,,,,7,1.61604,,,,,,,,,,,,,,,,,,,,,,,,,,,6,47.20001215,114.3999953,1,0,0,response1disk,4,66,-0.799988568,-2.400006473,1,0,0,rectangle,-0.799988568,-2.400006473,1,0,0,4,2,0,0.00096,-0.799988568,-2.400006473,1,0,0,0,65,65,56,1,,,,,,,,,,,,,,,,,,,,,
,,,,,,,,,,,,,,,,,,,,,,,,,,,,,,,,,,,,,,,,,,,5fa44fa36ad9c1039f9988e1,5ff3a3de3986cc99928e6dda,2021-01-04_23h42.00.873,Colour_Similarity_Experiment_v1,2020.1.2,Win32,60,5ff3a352adaa099f7659f8cc,,,,,,,,,,,,,,,,,,,,PF,,,,,,,,7,2.461405,,,,,,,,,,,,,,,,,,,,,,,,,,,3,32.80001193,75.19997027,1,0,0,response1disk,8,67,16.80001169,-6.4373E-06,1,0,0,rectangle,16.80001169,-6.4373E-06,1,0,0,4,0,0,0.000805,16.80001169,-6.4373E-06,1,0,0,0,66,66,3,1,,,,,,,,,,,,,,,,,,,,,
,,,,,,,,,,,,,,,,,,,,,,,,,,,,,,,,,,,,,,,,,,,5fa44fa36ad9c1039f9988e1,5ff3a3de3986cc99928e6dda,2021-01-04_23h42.00.873,Colour_Similarity_Experiment_v1,2020.1.2,Win32,60,5ff3a352adaa099f7659f8cc,,,,,,,,,,,,,,,,,,,,PF,,,,,,,,0,3.05341,,,,,,,,,,,,,,,,,,,,,,,,,,,4,-54.39994054,82.39999479,1,0,0,response7disk,2,68,-19.19998884,-0.800006449,1,0,0,rectangle,-19.19998884,-0.800006449,1,0,0,4,6,0,0.00171,-19.19998884,-0.800006449,1,0,0,0,67,67,108,1,,,,,,,,,,,,,,,,,,,,,
,,,,,,,,,,,,,,,,,,,,,,,,,,,,,,,,,,,,,,,,,,,5fa44fa36ad9c1039f9988e1,5ff3a3de3986cc99928e6dda,2021-01-04_23h42.00.873,Colour_Similarity_Experiment_v1,2020.1.2,Win32,60,5ff3a352adaa099f7659f8cc,,,,,,,,,,,,,,,,,,,,FF,,,,,,,,7,1.485165,,,,,,,,,,,,,,,,,,,,,,,,,,,7,62.40001237,88.79999489,1,0,0,response1disk,2,69,-8.799988687,-6.4373E-06,1,0,0,rectangle,-8.799988687,-6.4373E-06,1,0,0,4,0,0,0.000805,-8.799988687,-6.4373E-06,1,0,0,0,68,68,138,1,,,,,,,,,,,,,,,,,,,,,
,,,,,,,,,,,,,,,,,,,,,,,,,,,,,,,,,,,,,,,,,,,5fa44fa36ad9c1039f9988e1,5ff3a3de3986cc99928e6dda,2021-01-04_23h42.00.873,Colour_Similarity_Experiment_v1,2020.1.2,Win32,60,5ff3a352adaa099f7659f8cc,,,,,,,,,,,,,,,,,,,,PF,,,,,,,,7,1.223985,,,,,,,,,,,,,,,,,,,,,,,,,,,7,29.60006071,79.19997033,1,0,0,response1disk,9,70,3.200011492,1.599993587,1,0,0,rectangle,3.200011492,1.599993587,1,0,0,4,7,0,0.000615,3.200011492,1.599993587,1,0,0,0,69,69,10,1,,,,,,,,,,,,,,,,,,,,,
,,,,,,,,,,,,,,,,,,,,,,,,,,,,,,,,,,,,,,,,,,,5fa44fa36ad9c1039f9988e1,5ff3a3de3986cc99928e6dda,2021-01-04_23h42.00.873,Colour_Similarity_Experiment_v1,2020.1.2,Win32,60,5ff3a352adaa099f7659f8cc,,,,,,,,,,,,,,,,,,,,FF,,,,,,,,7,1.23126,,,,,,,,,,,,,,,,,,,,,,,,,,,4,24.0000118,47.19996985,1,0,0,response1disk,1,71,-4.799988627,-3.200006485,1,0,0,rectangle,-4.799988627,-3.200006485,1,0,0,4,1,0,0.000725,-4.799988627,-3.200006485,1,0,0,0,70,70,102,1,,,,,,,,,,,,,,,,,,,,,
,,,,,,,,,,,,,,,,,,,,,,,,,,,,,,,,,,,,,,,,,,,5fa44fa36ad9c1039f9988e1,5ff3a3de3986cc99928e6dda,2021-01-04_23h42.00.873,Colour_Similarity_Experiment_v1,2020.1.2,Win32,60,5ff3a352adaa099f7659f8cc,,,,,,,,,,,,,,,,,,,,FF,,,,,,,,7,1.50438,,,,,,,,,,,,,,,,,,,,,,,,,,,6,35.20001197,61.59999448,1,0,0,response1disk,2,72,8.800011575,-9.60000658,1,0,0,rectangle,8.800011575,-9.60000658,1,0,0,4,5,0,0.00063,8.800011575,-9.60000658,1,0,0,0,71,71,112,1,,,,,,,,,,,,,,,,,,,,,
,,,,,,,,,,,,,,,,,,,,,,,,,,,,,,,,,,,,,,,,,,,5fa44fa36ad9c1039f9988e1,5ff3a3de3986cc99928e6dda,2021-01-04_23h42.00.873,Colour_Similarity_Experiment_v1,2020.1.2,Win32,60,5ff3a352adaa099f7659f8cc,,,,,,,,,,,,,,,,,,,,FF,,,,,,,,7,0.93971,,,,,,,,,,,,,,,,,,,,,,,,,,,1,31.20001191,67.19997015,1,0,0,response1disk,4,73,0.800011456,-5.600006521,1,0,0,rectangle,0.800011456,-5.600006521,1,0,0,4,3,0,0.00069,0.800011456,-5.600006521,1,0,0,0,72,72,135,1,,,,,,,,,,,,,,,,,,,,,
,,,,,,,,,,,,,,,,,,,,,,,,,,,,,,,,,,,,,,,,,,,5fa44fa36ad9c1039f9988e1,5ff3a3de3986cc99928e6dda,2021-01-04_23h42.00.873,Colour_Similarity_Experiment_v1,2020.1.2,Win32,60,5ff3a352adaa099f7659f8cc,,,,,,,,,,,,,,,,,,,,PF,,,,,,,,7,0.980145,,,,,,,,,,,,,,,,,,,,,,,,,,,9,34.40001196,60.79999447,1,0,0,response1disk,3,74,12.80001163,5.599993646,1,0,0,rectangle,12.80001163,5.599993646,1,0,0,4,7,0,0.00079,12.80001163,5.599993646,1,0,0,0,73,73,119,1,,,,,,,,,,,,,,,,,,,,,
,,,,,,,,,,,,,,,,,,,,,,,,,,,,,,,,,,,,,,,,,,,5fa44fa36ad9c1039f9988e1,5ff3a3de3986cc99928e6dda,2021-01-04_23h42.00.873,Colour_Similarity_Experiment_v1,2020.1.2,Win32,60,5ff3a352adaa099f7659f8cc,,,,,,,,,,,,,,,,,,,,FF,,,,,,,,7,1.066595,,,,,,,,,,,,,,,,,,,,,,,,,,,2,22.40001178,62.39999449,1,0,0,response1disk,5,75,4.000011504,-6.4373E-06,1,0,0,rectangle,4.000011504,-6.4373E-06,1,0,0,4,6,0,0.0011,4.000011504,-6.4373E-06,1,0,0,0,74,74,80,1,,,,,,,,,,,,,,,,,,,,,
,,,,,,,,,,,,,,,,,,,,,,,,,,,,,,,,,,,,,,,,,,,5fa44fa36ad9c1039f9988e1,5ff3a3de3986cc99928e6dda,2021-01-04_23h42.00.873,Colour_Similarity_Experiment_v1,2020.1.2,Win32,60,5ff3a352adaa099f7659f8cc,,,,,,,,,,,,,,,,,,,,PF,,,,,,,,7,0.640385,,,,,,,,,,,,,,,,,,,,,,,,,,,1,44.80001211,76.79999471,1,0,0,response1disk,9,76,4.800011516,-1.600006461,1,0,0,rectangle,4.800011516,-1.600006461,1,0,0,4,0,0,0.000815,4.800011516,-1.600006461,1,0,0,0,75,75,15,1,,,,,,,,,,,,,,,,,,,,,
,,,,,,,,,,,,,,,,,,,,,,,,,,,,,,,,,,,,,,,,,,,5fa44fa36ad9c1039f9988e1,5ff3a3de3986cc99928e6dda,2021-01-04_23h42.00.873,Colour_Similarity_Experiment_v1,2020.1.2,Win32,60,5ff3a352adaa099f7659f8cc,,,,,,,,,,,,,,,,,,,,FF,,,,,,,,0,4.496995,,,,,,,,,,,,,,,,,,,,,,,,,,,4,-48.79998928,71.19997021,1,0,0,response7disk,5,77,-11.19998872,-1.600006461,1,0,0,rectangle,-11.19998872,-1.600006461,1,0,0,4,1,0,0.0007,-11.19998872,-1.600006461,1,0,0,0,76,76,116,1,,,,,,,,,,,,,,,,,,,,,
,,,,,,,,,,,,,,,,,,,,,,,,,,,,,,,,,,,,,,,,,,,5fa44fa36ad9c1039f9988e1,5ff3a3de3986cc99928e6dda,2021-01-04_23h42.00.873,Colour_Similarity_Experiment_v1,2020.1.2,Win32,60,5ff3a352adaa099f7659f8cc,,,,,,,,,,,,,,,,,,,,PF,,,,,,,,7,1.2135,,,,,,,,,,,,,,,,,,,,,,,,,,,9,40.80001205,72.79999465,1,0,0,response1disk,7,78,17.60006053,16.79999381,1,0,0,rectangle,17.60006053,16.79999381,1,0,0,6,5,0,0.00074,17.60006053,16.79999381,1,0,0,0,77,77,121,1,,,,,,,,,,,,,,,,,,,,,
,,,,,,,,,,,,,,,,,,,,,,,,,,,,,,,,,,,,,,,,,,,5fa44fa36ad9c1039f9988e1,5ff3a3de3986cc99928e6dda,2021-01-04_23h42.00.873,Colour_Similarity_Experiment_v1,2020.1.2,Win32,60,5ff3a352adaa099f7659f8cc,,,,,,,,,,,,,,,,,,,,PF,,,,,,,,3,1.795235,,,,,,,,,,,,,,,,,,,,,,,,,,,7,-59.19998944,-68.80000746,1,0,0,response5disk,5,79,5.600060356,16.79999381,1,0,0,rectangle,5.600060356,16.79999381,1,0,0,6,0,0,0.000765,5.600060356,16.79999381,1,0,0,0,78,78,92,1,,,,,,,,,,,,,,,,,,,,,
,,,,,,,,,,,,,,,,,,,,,,,,,,,,,,,,,,,,,,,,,,,5fa44fa36ad9c1039f9988e1,5ff3a3de3986cc99928e6dda,2021-01-04_23h42.00.873,Colour_Similarity_Experiment_v1,2020.1.2,Win32,60,5ff3a352adaa099f7659f8cc,,,,,,,,,,,,,,,,,,,,FF,,,,,,,,3,1.50036,,,,,,,,,,,,,,,,,,,,,,,,,,,1,-43.1999892,-81.60005648,1,0,0,response5disk,8,80,-13.59998876,-10.40000659,1,0,0,rectangle,-13.59998876,-10.40000659,1,0,0,6,2,0,0.00068,-13.59998876,-10.40000659,1,0,0,0,79,79,27,1,,,,,,,,,,,,,,,,,,,,,
,,,,,,,,,,,,,,,,,,,,,,,,,,,,,,,,,,,,,,,,,,,5fa44fa36ad9c1039f9988e1,5ff3a3de3986cc99928e6dda,2021-01-04_23h42.00.873,Colour_Similarity_Experiment_v1,2020.1.2,Win32,60,5ff3a352adaa099f7659f8cc,,,,,,,,,,,,,,,,,,,,FF,,,,,,,,3,1.452365,,,,,,,,,,,,,,,,,,,,,,,,,,,9,-37.59998912,-66.40000743,1,0,0,response5disk,2,81,-19.19998884,-4.800006509,1,0,0,rectangle,-27.99998897,-67.20000744,1,0,0,3,3,1,1.64434,-27.99998897,3.19999361,1,0,0,0,80,80,11,1,response5disk_3,rectangle,,,,,,,,,,,,,,,,,,,
,,,,,,,,,,,,,,,,,,,,,,,,,,,,,,,,,,,,,,,,,,,5fa44fa36ad9c1039f9988e1,5ff3a3de3986cc99928e6dda,2021-01-04_23h42.00.873,Colour_Similarity_Experiment_v1,2020.1.2,Win32,60,5ff3a352adaa099f7659f8cc,,,,,,,,,,,,,,,,,,,,PF,,,,,,,,7,2.178155,,,,,,,,,,,,,,,,,,,,,,,,,,,6,36.00001198,79.99999475,1,0,0,response1disk,7,82,8.000011563,9.599993706,1,0,0,rectangle,8.000011563,9.599993706,1,0,0,3,7,0,0.00093,8.000011563,9.599993706,1,0,0,0,81,81,50,1,,,,,,,,,,,,,,,,,,,,,
,,,,,,,,,,,,,,,,,,,,,,,,,,,,,,,,,,,,,,,,,,,5fa44fa36ad9c1039f9988e1,5ff3a3de3986cc99928e6dda,2021-01-04_23h42.00.873,Colour_Similarity_Experiment_v1,2020.1.2,Win32,60,5ff3a352adaa099f7659f8cc,,,,,,,,,,,,,,,,,,,,FF,,,,,,,,3,1.8226,,,,,,,,,,,,,,,,,,,,,,,,,,,2,-48.79998928,-55.20000726,1,0,0,response5disk,9,83,-23.1999889,-8.800006568,1,0,0,rectangle,-23.1999889,-8.800006568,1,0,0,3,2,0,0.00073,-23.1999889,-8.800006568,1,0,0,0,82,82,72,1,,,,,,,,,,,,,,,,,,,,,
,,,,,,,,,,,,,,,,,,,,,,,,,,,,,,,,,,,,,,,,,,,5fa44fa36ad9c1039f9988e1,5ff3a3de3986cc99928e6dda,2021-01-04_23h42.00.873,Colour_Similarity_Experiment_v1,2020.1.2,Win32,60,5ff3a352adaa099f7659f8cc,,,,,,,,,,,,,,,,,,,,PF,,,,,,,,7,2.68757,,,,,,,,,,,,,,,,,,,,,,,,,,,6,56.80001229,76.79999471,1,0,0,response1disk,9,84,32.00001192,7.999993682,1,0,0,rectangle,32.00001192,7.999993682,1,0,0,3,7,0,0.000955,32.00001192,7.999993682,1,0,0,0,83,83,45,1,,,,,,,,,,,,,,,,,,,,,
,,,,,,,,,,,,,,,,,,,,,,,,,,,,,,,,,,,,,,,,,,,5fa44fa36ad9c1039f9988e1,5ff3a3de3986cc99928e6dda,2021-01-04_23h42.00.873,Colour_Similarity_Experiment_v1,2020.1.2,Win32,60,5ff3a352adaa099f7659f8cc,,,,,,,,,,,,,,,,,,,,FF,,,,,,,,0,1.69211,,,,,,,,,,,,,,,,,,,,,,,,,,,2,-36.7999891,71.99999464,1,0,0,response7disk,7,85,6.400011539,2.399993598,1,0,0,rectangle,6.400011539,2.399993598,1,0,0,3,3,0,0.00076,6.400011539,2.399993598,1,0,0,0,84,84,63,1,,,,,,,,,,,,,,,,,,,,,
,,,,,,,,,,,,,,,,,,,,,,,,,,,,,,,,,,,,,,,,,,,5fa44fa36ad9c1039f9988e1,5ff3a3de3986cc99928e6dda,2021-01-04_23h42.00.873,Colour_Similarity_Experiment_v1,2020.1.2,Win32,60,5ff3a352adaa099f7659f8cc,,,,,,,,,,,,,,,,,,,,FF,,,,,,,,7,1.855,,,,,,,,,,,,,,,,,,,,,,,,,,,2,20.00001174,85.59999484,1,0,0,response1disk,6,86,2.40001148,0.799993575,1,0,0,rectangle,2.40001148,0.799993575,1,0,0,3,5,0,0.001,2.40001148,0.799993575,1,0,0,0,85,85,40,1,,,,,,,,,,,,,,,,,,,,,
,,,,,,,,,,,,,,,,,,,,,,,,,,,,,,,,,,,,,,,,,,,5fa44fa36ad9c1039f9988e1,5ff3a3de3986cc99928e6dda,2021-01-04_23h42.00.873,Colour_Similarity_Experiment_v1,2020.1.2,Win32,60,5ff3a352adaa099f7659f8cc,,,,,,,,,,,,,,,,,,,,FF,,,,,,,,0,1.65895,,,,,,,,,,,,,,,,,,,,,,,,,,,4,-34.39994024,75.9999947,1,0,0,response7disk,4,87,-11.19998872,-4.800006509,1,0,0,rectangle,-11.19998872,-4.800006509,1,0,0,3,3,0,0.0008,-11.19998872,-4.800006509,1,0,0,0,86,86,84,1,,,,,,,,,,,,,,,,,,,,,
,,,,,,,,,,,,,,,,,,,,,,,,,,,,,,,,,,,,,,,,,,,5fa44fa36ad9c1039f9988e1,5ff3a3de3986cc99928e6dda,2021-01-04_23h42.00.873,Colour_Similarity_Experiment_v1,2020.1.2,Win32,60,5ff3a352adaa099f7659f8cc,,,,,,,,,,,,,,,,,,,,PF,,,,,,,,3,3.096965,,,,,,,,,,,,,,,,,,,,,,,,,,,1,-34.39994024,-40.80000705,1,0,0,response5disk,3,88,-8.799988687,7.19999367,1,0,0,rectangle,-8.799988687,7.19999367,1,0,0,3,3,0,0.00069,-8.799988687,7.19999367,1,0,0,0,87,87,1,1,,,,,,,,,,,,,,,,,,,,,
,,,,,,,,,,,,,,,,,,,,,,,,,,,,,,,,,,,,,,,,,,,5fa44fa36ad9c1039f9988e1,5ff3a3de3986cc99928e6dda,2021-01-04_23h42.00.873,Colour_Similarity_Experiment_v1,2020.1.2,Win32,60,5ff3a352adaa099f7659f8cc,,,,,,,,,,,,,,,,,,,,FF,,,,,,,,3,1.74743,,,,,,,,,,,,,,,,,,,,,,,,,,,6,-31.19998902,-57.6000073,1,0,0,response5disk,5,89,-18.39994,-12.80000663,1,0,0,rectangle,-18.39994,-12.80000663,1,0,0,3,3,0,0.00088,-18.39994,-12.80000663,1,0,0,0,88,88,126,1,,,,,,,,,,,,,,,,,,,,,
,,,,,,,,,,,,,,,,,,,,,,,,,,,,,,,,,,,,,,,,,,,5fa44fa36ad9c1039f9988e1,5ff3a3de3986cc99928e6dda,2021-01-04_23h42.00.873,Colour_Similarity_Experiment_v1,2020.1.2,Win32,60,5ff3a352adaa099f7659f8cc,,,,,,,,,,,,,,,,,,,,FF,,,,,,,,3,2.119815,,,,,,,,,,,,,,,,,,,,,,,,,,,7,-27.99998897,-40.80000705,1,0,0,response5disk,1,90,-3.199988604,7.19999367,1,0,0,rectangle,-3.199988604,7.19999367,1,0,0,3,6,0,0.00065,-3.199988604,7.19999367,1,0,0,0,89,89,132,1,,,,,,,,,,,,,,,,,,,,,
,,,,,,,,,,,,,,,,,,,,,,,,,,,,,,,,,,,,,,,,,,,5fa44fa36ad9c1039f9988e1,5ff3a3de3986cc99928e6dda,2021-01-04_23h42.00.873,Colour_Similarity_Experiment_v1,2020.1.2,Win32,60,5ff3a352adaa099f7659f8cc,,,,,,,,,,,,,,,,,,,,PF,,,,,,,,0,1.831985,,,,,,,,,,,,,,,,,,,,,,,,,,,2,-41.59998918,54.39999437,1,0,0,response7disk,1,91,-16.79998881,5.599993646,1,0,0,rectangle,-16.79998881,5.599993646,1,0,0,3,3,0,0.00083,-16.79998881,5.599993646,1,0,0,0,90,90,9,1,,,,,,,,,,,,,,,,,,,,,
,,,,,,,,,,,,,,,,,,,,,,,,,,,,,,,,,,,,,,,,,,,5fa44fa36ad9c1039f9988e1,5ff3a3de3986cc99928e6dda,2021-01-04_23h42.00.873,Colour_Similarity_Experiment_v1,2020.1.2,Win32,60,5ff3a352adaa099f7659f8cc,,,,,,,,,,,,,,,,,,,,PF,,,,,,,,7,1.79206,,,,,,,,,,,,,,,,,,,,,,,,,,,1,51.20001221,99.19997063,1,0,0,response1disk,5,92,13.60006047,14.39999378,1,0,0,rectangle,13.60006047,14.39999378,1,0,0,3,3,0,0.00071,13.60006047,14.39999378,1,0,0,0,91,91,28,1,,,,,,,,,,,,,,,,,,,,,
,,,,,,,,,,,,,,,,,,,,,,,,,,,,,,,,,,,,,,,,,,,5fa44fa36ad9c1039f9988e1,5ff3a3de3986cc99928e6dda,2021-01-04_23h42.00.873,Colour_Similarity_Experiment_v1,2020.1.2,Win32,60,5ff3a352adaa099f7659f8cc,,,,,,,,,,,,,,,,,,,,FF,,,,,,,,0,1.20958,,,,,,,,,,,,,,,,,,,,,,,,,,,9,-49.5999893,92.79999495,1,0,0,response7disk,9,93,-17.59998882,-8.000006557,1,0,0,rectangle,-17.59998882,-8.000006557,1,0,0,3,0,0,0.000855,-17.59998882,-8.000006557,1,0,0,0,92,92,17,1,,,,,,,,,,,,,,,,,,,,,
,,,,,,,,,,,,,,,,,,,,,,,,,,,,,,,,,,,,,,,,,,,5fa44fa36ad9c1039f9988e1,5ff3a3de3986cc99928e6dda,2021-01-04_23h42.00.873,Colour_Similarity_Experiment_v1,2020.1.2,Win32,60,5ff3a352adaa099f7659f8cc,,,,,,,,,,,,,,,,,,,,PF,,,,,,,,7,3.46545,,,,,,,,,,,,,,,,,,,,,,,,,,,3,46.40001214,82.39999479,1,0,0,response1disk,6,94,16.80001169,10.39999372,1,0,0,rectangle,16.80001169,10.39999372,1,0,0,3,3,0,0.00086,16.80001169,10.39999372,1,0,0,0,93,93,47,1,,,,,,,,,,,,,,,,,,,,,
,,,,,,,,,,,,,,,,,,,,,,,,,,,,,,,,,,,,,,,,,,,5fa44fa36ad9c1039f9988e1,5ff3a3de3986cc99928e6dda,2021-01-04_23h42.00.873,Colour_Similarity_Experiment_v1,2020.1.2,Win32,60,5ff3a352adaa099f7659f8cc,,,,,,,,,,,,,,,,,,,,PF,,,,,,,,7,1.78981,,,,,,,,,,,,,,,,,,,,,,,,,,,6,28.00001186,67.19997015,1,0,0,response1disk,1,95,-3.999988616,-2.400006473,1,0,0,rectangle,-3.999988616,-2.400006473,1,0,0,3,6,0,0.000695,-3.999988616,-2.400006473,1,0,0,0,94,94,46,1,,,,,,,,,,,,,,,,,,,,,
,,,,,,,,,,,,,,,,,,,,,,,,,,,,,,,,,,,,,,,,,,,5fa44fa36ad9c1039f9988e1,5ff3a3de3986cc99928e6dda,2021-01-04_23h42.00.873,Colour_Similarity_Experiment_v1,2020.1.2,Win32,60,5ff3a352adaa099f7659f8cc,,,,,,,,,,,,,,,,,,,,FF,,,,,,,,7,1.535215,,,,,,,,,,,,,,,,,,,,,,,,,,,7,40.80001205,68.79999459,1,0,0,response1disk,9,96,5.600060356,5.599993646,1,0,0,rectangle,5.600060356,5.599993646,1,0,0,3,7,0,0.000905,5.600060356,5.599993646,1,0,0,0,95,95,155,1,,,,,,,,,,,,,,,,,,,,,
,,,,,,,,,,,,,,,,,,,,,,,,,,,,,,,,,,,,,,,,,,,5fa44fa36ad9c1039f9988e1,5ff3a3de3986cc99928e6dda,2021-01-04_23h42.00.873,Colour_Similarity_Experiment_v1,2020.1.2,Win32,60,5ff3a352adaa099f7659f8cc,,,,,,,,,,,,,,,,,,,,FF,,,,,,,,0,1.795685,,,,,,,,,,,,,,,,,,,,,,,,,,,2,-35.99998909,87.19997045,1,0,0,response7disk,2,97,-7.999988675,-4.800006509,1,0,0,rectangle,-7.999988675,-4.800006509,1,0,0,3,4,0,0.000775,-7.999988675,-4.800006509,1,0,0,0,96,96,142,1,,,,,,,,,,,,,,,,,,,,,
,,,,,,,,,,,,,,,,,,,,,,,,,,,,,,,,,,,,,,,,,,,5fa44fa36ad9c1039f9988e1,5ff3a3de3986cc99928e6dda,2021-01-04_23h42.00.873,Colour_Similarity_Experiment_v1,2020.1.2,Win32,60,5ff3a352adaa099f7659f8cc,,,,,,,,,,,,,,,,,,,,PF,,,,,,,,0,1.80842,,,,,,,,,,,,,,,,,,,,,,,,,,,7,-43.99998921,87.99999487,1,0,0,response7disk,4,98,-5.599988639,8.799993694,1,0,0,rectangle,-5.599988639,8.799993694,1,0,0,3,5,0,0.00077,-5.599988639,8.799993694,1,0,0,0,97,97,43,1,,,,,,,,,,,,,,,,,,,,,
,,,,,,,,,,,,,,,,,,,,,,,,,,,,,,,,,,,,,,,,,,,5fa44fa36ad9c1039f9988e1,5ff3a3de3986cc99928e6dda,2021-01-04_23h42.00.873,Colour_Similarity_Experiment_v1,2020.1.2,Win32,60,5ff3a352adaa099f7659f8cc,,,,,,,,,,,,,,,,,,,,FF,,,,,,,,3,1.90374,,,,,,,,,,,,,,,,,,,,,,,,,,,3,-40.79998916,-60.80000734,1,0,0,response5disk,9,99,0.800011456,3.999993622,1,0,0,rectangle,0.800011456,3.999993622,1,0,0,3,4,0,0.00085,0.800011456,3.999993622,1,0,0,0,98,98,143,1,,,,,,,,,,,,,,,,,,,,,
,,,,,,,,,,,,,,,,,,,,,,,,,,,,,,,,,,,,,,,,,,,5fa44fa36ad9c1039f9988e1,5ff3a3de3986cc99928e6dda,2021-01-04_23h42.00.873,Colour_Similarity_Experiment_v1,2020.1.2,Win32,60,5ff3a352adaa099f7659f8cc,,,,,,,,,,,,,,,,,,,,FF,,,,,,,,7,2.069755,,,,,,,,,,,,,,,,,,,,,,,,,,,9,61.60001236,76.79999471,1,0,0,response1disk,8,100,2.40001148,-4.000006497,1,0,0,rectangle,2.40001148,-4.000006497,1,0,0,3,1,0,0.001035,2.40001148,-4.000006497,1,0,0,0,99,99,6,1,,,,,,,,,,,,,,,,,,,,,
,,,,,,,,,,,,,,,,,,,,,,,,,,,,,,,,,,,,,,,,,,,5fa44fa36ad9c1039f9988e1,5ff3a3de3986cc99928e6dda,2021-01-04_23h42.00.873,Colour_Similarity_Experiment_v1,2020.1.2,Win32,60,5ff3a352adaa099f7659f8cc,,,,,,,,,,,,,,,,,,,,PF,,,,,,,,1,2.126835,,,,,,,,,,,,,,,,,,,,,,,,,,,2,-55.19998938,53.59999436,1,0,0,response7disk,9,101,-26.39994012,6.399993658,1,0,0,rectangle,-26.39994012,6.399993658,1,0,0,3,5,0,0.00112,-26.39994012,6.399993658,1,0,0,0,100,100,39,1,,,,,,,,,,,,,,,,,,,,,
,,,,,,,,,,,,,,,,,,,,,,,,,,,,,,,,,,,,,,,,,,,5fa44fa36ad9c1039f9988e1,5ff3a3de3986cc99928e6dda,2021-01-04_23h42.00.873,Colour_Similarity_Experiment_v1,2020.1.2,Win32,60,5ff3a352adaa099f7659f8cc,,,,,,,,,,,,,,,,,,,,FF,,,,,,,,0,2.615285,,,,,,,,,,,,,,,,,,,,,,,,,,,8,-27.99998897,60.79999447,1,0,0,response7disk,7,102,-15.99998879,9.599993706,1,0,0,rectangle,-15.99998879,9.599993706,1,0,0,3,2,0,0.001035,-15.99998879,9.599993706,1,0,0,0,101,101,86,1,,,,,,,,,,,,,,,,,,,,,
,,,,,,,,,,,,,,,,,,,,,,,,,,,,,,,,,,,,,,,,,,,5fa44fa36ad9c1039f9988e1,5ff3a3de3986cc99928e6dda,2021-01-04_23h42.00.873,Colour_Similarity_Experiment_v1,2020.1.2,Win32,60,5ff3a352adaa099f7659f8cc,,,,,,,,,,,,,,,,,,,,FF,,,,,,,,0,1.500365,,,,,,,,,,,,,,,,,,,,,,,,,,,9,-37.59998912,72.79999465,1,0,0,response7disk,6,103,-14.39993994,10.39999372,1,0,0,rectangle,-14.39993994,10.39999372,1,0,0,3,3,0,0.0016,-14.39993994,10.39999372,1,0,0,0,102,102,117,1,,,,,,,,,,,,,,,,,,,,,
,,,,,,,,,,,,,,,,,,,,,,,,,,,,,,,,,,,,,,,,,,,5fa44fa36ad9c1039f9988e1,5ff3a3de3986cc99928e6dda,2021-01-04_23h42.00.873,Colour_Similarity_Experiment_v1,2020.1.2,Win32,60,5ff3a352adaa099f7659f8cc,,,,,,,,,,,,,,,,,,,,FF,,,,,,,,7,1.74732,,,,,,,,,,,,,,,,,,,,,,,,,,,6,26.40001184,82.39999479,1,0,0,response1disk,3,104,3.200011492,10.39999372,1,0,0,rectangle,3.200011492,10.39999372,1,0,0,3,0,0,0.0007,3.200011492,10.39999372,1,0,0,0,103,103,21,1,,,,,,,,,,,,,,,,,,,,,
,,,,,,,,,,,,,,,,,,,,,,,,,,,,,,,,,,,,,,,,,,,5fa44fa36ad9c1039f9988e1,5ff3a3de3986cc99928e6dda,2021-01-04_23h42.00.873,Colour_Similarity_Experiment_v1,2020.1.2,Win32,60,5ff3a352adaa099f7659f8cc,,,,,,,,,,,,,,,,,,,,PF,,,,,,,,0,1.21343,,,,,,,,,,,,,,,,,,,,,,,,,,,2,-55.19998938,91.19997051,1,0,0,response7disk,2,105,-14.39993994,-3.200006485,1,0,0,rectangle,-14.39993994,-3.200006485,1,0,0,3,3,0,0.00075,-14.39993994,-3.200006485,1,0,0,0,104,104,14,1,,,,,,,,,,,,,,,,,,,,,
,,,,,,,,,,,,,,,,,,,,,,,,,,,,,,,,,,,,,,,,,,,5fa44fa36ad9c1039f9988e1,5ff3a3de3986cc99928e6dda,2021-01-04_23h42.00.873,Colour_Similarity_Experiment_v1,2020.1.2,Win32,60,5ff3a352adaa099f7659f8cc,,,,,,,,,,,,,,,,,,,,PF,,,,,,,,6,4.48422,,,,,,,,,,,,,,,,,,,,,,,,,,,5,53.60001224,51.99999434,1,0,0,response1disk,7,106,12.80001163,-2.400006473,1,0,0,rectangle,12.80001163,-2.400006473,1,0,0,3,0,0,0.00069,12.80001163,-2.400006473,1,0,0,0,105,105,146,1,,,,,,,,,,,,,,,,,,,,,
,,,,,,,,,,,,,,,,,,,,,,,,,,,,,,,,,,,,,,,,,,,5fa44fa36ad9c1039f9988e1,5ff3a3de3986cc99928e6dda,2021-01-04_23h42.00.873,Colour_Similarity_Experiment_v1,2020.1.2,Win32,60,5ff3a352adaa099f7659f8cc,,,,,,,,,,,,,,,,,,,,FF,,,,,,,,7,1.736435,,,,,,,,,,,,,,,,,,,,,,,,,,,4,63.20001239,89.5999949,1,0,0,response1disk,9,107,6.400011539,-4.000006497,1,0,0,rectangle,6.400011539,-4.000006497,1,0,0,3,6,0,0.000815,6.400011539,-4.000006497,1,0,0,0,106,106,90,1,,,,,,,,,,,,,,,,,,,,,
,,,,,,,,,,,,,,,,,,,,,,,,,,,,,,,,,,,,,,,,,,,5fa44fa36ad9c1039f9988e1,5ff3a3de3986cc99928e6dda,2021-01-04_23h42.00.873,Colour_Similarity_Experiment_v1,2020.1.2,Win32,60,5ff3a352adaa099f7659f8cc,,,,,,,,,,,,,,,,,,,,PF,,,,,,,,0,1.544345,,,,,,,,,,,,,,,,,,,,,,,,,,,8,-44.79998922,79.99999475,1,0,0,response7disk,8,108,16.00001168,10.39999372,1,0,0,rectangle,16.00001168,10.39999372,1,0,0,3,6,0,0.000695,16.00001168,10.39999372,1,0,0,0,107,107,153,1,,,,,,,,,,,,,,,,,,,,,
,,,,,,,,,,,,,,,,,,,,,,,,,,,,,,,,,,,,,,,,,,,5fa44fa36ad9c1039f9988e1,5ff3a3de3986cc99928e6dda,2021-01-04_23h42.00.873,Colour_Similarity_Experiment_v1,2020.1.2,Win32,60,5ff3a352adaa099f7659f8cc,,,,,,,,,,,,,,,,,,,,PF,,,,,,,,7,1.83414,,,,,,,,,,,,,,,,,,,,,,,,,,,2,47.20001215,91.19997051,1,0,0,response1disk,4,109,17.60006053,3.999993622,1,0,0,rectangle,17.60006053,3.999993622,1,0,0,3,2,0,0.000685,17.60006053,3.999993622,1,0,0,0,108,108,127,1,,,,,,,,,,,,,,,,,,,,,
,,,,,,,,,,,,,,,,,,,,,,,,,,,,,,,,,,,,,,,,,,,5fa44fa36ad9c1039f9988e1,5ff3a3de3986cc99928e6dda,2021-01-04_23h42.00.873,Colour_Similarity_Experiment_v1,2020.1.2,Win32,60,5ff3a352adaa099f7659f8cc,,,,,,,,,,,,,,,,,,,,FF,,,,,,,,7,1.77245,,,,,,,,,,,,,,,,,,,,,,,,,,,4,45.60006095,71.99999464,1,0,0,response1disk,8,110,11.20001161,10.39999372,1,0,0,rectangle,11.20001161,10.39999372,1,0,0,3,2,0,0.00073,11.20001161,10.39999372,1,0,0,0,109,109,35,1,,,,,,,,,,,,,,,,,,,,,
,,,,,,,,,,,,,,,,,,,,,,,,,,,,,,,,,,,,,,,,,,,5fa44fa36ad9c1039f9988e1,5ff3a3de3986cc99928e6dda,2021-01-04_23h42.00.873,Colour_Similarity_Experiment_v1,2020.1.2,Win32,60,5ff3a352adaa099f7659f8cc,,,,,,,,,,,,,,,,,,,,FF,,,,,,,,7,1.21141,,,,,,,,,,,,,,,,,,,,,,,,,,,2,28.00001186,65.59999454,1,0,0,response1disk,8,111,-1.59998858,0.799993575,1,0,0,rectangle,-1.59998858,0.799993575,1,0,0,3,2,0,0.000735,-1.59998858,0.799993575,1,0,0,0,110,110,62,1,,,,,,,,,,,,,,,,,,,,,
,,,,,,,,,,,,,,,,,,,,,,,,,,,,,,,,,,,,,,,,,,,5fa44fa36ad9c1039f9988e1,5ff3a3de3986cc99928e6dda,2021-01-04_23h42.00.873,Colour_Similarity_Experiment_v1,2020.1.2,Win32,60,5ff3a352adaa099f7659f8cc,,,,,,,,,,,,,,,,,,,,FF,,,,,,,,7,1.186285,,,,,,,,,,,,,,,,,,,,,,,,,,,8,44.0000121,79.19997033,1,0,0,response1disk,2,112,9.600060415,-0.800006449,1,0,0,rectangle,9.600060415,-0.800006449,1,0,0,3,6,0,0.00076,9.600060415,-0.800006449,1,0,0,0,111,111,22,1,,,,,,,,,,,,,,,,,,,,,
,,,,,,,,,,,,,,,,,,,,,,,,,,,,,,,,,,,,,,,,,,,5fa44fa36ad9c1039f9988e1,5ff3a3de3986cc99928e6dda,2021-01-04_23h42.00.873,Colour_Similarity_Experiment_v1,2020.1.2,Win32,60,5ff3a352adaa099f7659f8cc,,,,,,,,,,,,,,,,,,,,PF,,,,,,,,0,2.397965,,,,,,,,,,,,,,,,,,,,,,,,,,,9,-19.99998885,77.59999472,1,0,0,response7disk,9,113,-2.399939764,12.79999375,1,0,0,rectangle,-2.399939764,12.79999375,1,0,0,3,6,0,0.00103,-2.399939764,12.79999375,1,0,0,0,112,112,106,1,,,,,,,,,,,,,,,,,,,,,
,,,,,,,,,,,,,,,,,,,,,,,,,,,,,,,,,,,,,,,,,,,5fa44fa36ad9c1039f9988e1,5ff3a3de3986cc99928e6dda,2021-01-04_23h42.00.873,Colour_Similarity_Experiment_v1,2020.1.2,Win32,60,5ff3a352adaa099f7659f8cc,,,,,,,,,,,,,,,,,,,,PF,,,,,,,,0,1.381755,,,,,,,,,,,,,,,,,,,,,,,,,,,4,-26.39994012,71.19997021,1,0,0,response7disk,4,114,-4.799988627,-1.600006461,1,0,0,rectangle,-4.799988627,-1.600006461,1,0,0,3,2,0,0.000725,-4.799988627,-1.600006461,1,0,0,0,113,113,70,1,,,,,,,,,,,,,,,,,,,,,
,,,,,,,,,,,,,,,,,,,,,,,,,,,,,,,,,,,,,,,,,,,5fa44fa36ad9c1039f9988e1,5ff3a3de3986cc99928e6dda,2021-01-04_23h42.00.873,Colour_Similarity_Experiment_v1,2020.1.2,Win32,60,5ff3a352adaa099f7659f8cc,,,,,,,,,,,,,,,,,,,,PF,,,,,,,,7,1.63832,,,,,,,,,,,,,,,,,,,,,,,,,,,8,54.40001225,97.59999502,1,0,0,response1disk,6,115,13.60006047,6.399993658,1,0,0,rectangle,-58.3999406,-17.6000067,1,0,0,3,2,1,2.083815,-11.19998872,1.599993587,1,0,0,0,114,114,161,1,response5disk_3,rectangle,,,,,,,,,,,,,,,,,,,
,,,,,,,,,,,,,,,,,,,,,,,,,,,,,,,,,,,,,,,,,,,5fa44fa36ad9c1039f9988e1,5ff3a3de3986cc99928e6dda,2021-01-04_23h42.00.873,Colour_Similarity_Experiment_v1,2020.1.2,Win32,60,5ff3a352adaa099f7659f8cc,,,,,,,,,,,,,,,,,,,,PF,,,,,,,,6,3.291095,,,,,,,,,,,,,,,,,,,,,,,,,,,4,94.40001285,86.39999485,1,0,0,response1disk,1,116,1.14441E-05,3.999993622,1,0,0,rectangle,1.14441E-05,3.999993622,1,0,0,3,0,0,0.00067,1.14441E-05,3.999993622,1,0,0,0,115,115,115,1,,,,,,,,,,,,,,,,,,,,,
,,,,,,,,,,,,,,,,,,,,,,,,,,,,,,,,,,,,,,,,,,,5fa44fa36ad9c1039f9988e1,5ff3a3de3986cc99928e6dda,2021-01-04_23h42.00.873,Colour_Similarity_Experiment_v1,2020.1.2,Win32,60,5ff3a352adaa099f7659f8cc,,,,,,,,,,,,,,,,,,,,PF,,,,,,,,7,1.89607,,,,,,,,,,,,,,,,,,,,,,,,,,,4,32.00001192,80.79999477,1,0,0,response1disk,7,117,11.20001161,12.79999375,1,0,0,rectangle,11.20001161,12.79999375,1,0,0,3,0,0,0.00069,11.20001161,12.79999375,1,0,0,0,116,116,38,1,,,,,,,,,,,,,,,,,,,,,
,,,,,,,,,,,,,,,,,,,,,,,,,,,,,,,,,,,,,,,,,,,5fa44fa36ad9c1039f9988e1,5ff3a3de3986cc99928e6dda,2021-01-04_23h42.00.873,Colour_Similarity_Experiment_v1,2020.1.2,Win32,60,5ff3a352adaa099f7659f8cc,,,,,,,,,,,,,,,,,,,,FF,,,,,,,,7,1.472405,,,,,,,,,,,,,,,,,,,,,,,,,,,6,48.00001216,95.19997057,1,0,0,response1disk,9,118,15.20001167,9.599993706,1,0,0,rectangle,-59.99998945,89.5999949,1,0,0,0,0,1,3.021685,2.40001148,1.599993587,1,0,0,0,117,117,160,1,response7disk_3,rectangle,,,,,,,,,,,,,,,,,,,
,,,,,,,,,,,,,,,,,,,,,,,,,,,,,,,,,,,,,,,,,,,5fa44fa36ad9c1039f9988e1,5ff3a3de3986cc99928e6dda,2021-01-04_23h42.00.873,Colour_Similarity_Experiment_v1,2020.1.2,Win32,60,5ff3a352adaa099f7659f8cc,,,,,,,,,,,,,,,,,,,,FF,,,,,,,,7,1.92263,,,,,,,,,,,,,,,,,,,,,,,,,,,5,58.40001231,106.3999951,1,0,0,response1disk,7,119,4.000011504,2.399993598,1,0,0,rectangle,4.000011504,2.399993598,1,0,0,0,4,0,0.000695,4.000011504,2.399993598,1,0,0,0,118,118,7,1,,,,,,,,,,,,,,,,,,,,,
,,,,,,,,,,,,,,,,,,,,,,,,,,,,,,,,,,,,,,,,,,,5fa44fa36ad9c1039f9988e1,5ff3a3de3986cc99928e6dda,2021-01-04_23h42.00.873,Colour_Similarity_Experiment_v1,2020.1.2,Win32,60,5ff3a352adaa099f7659f8cc,,,,,,,,,,,,,,,,,,,,PF,,,,,,,,0,1.524765,,,,,,,,,,,,,,,,,,,,,,,,,,,6,-52.79998934,103.9999951,1,0,0,response7disk,6,120,-22.39994006,9.599993706,1,0,0,rectangle,-22.39994006,9.599993706,1,0,0,0,1,0,0.000715,-22.39994006,9.599993706,1,0,0,0,119,119,0,1,,,,,,,,,,,,,,,,,,,,,
,,,,,,,,,,,,,,,,,,,,,,,,,,,,,,,,,,,,,,,,,,,5fa44fa36ad9c1039f9988e1,5ff3a3de3986cc99928e6dda,2021-01-04_23h42.00.873,Colour_Similarity_Experiment_v1,2020.1.2,Win32,60,5ff3a352adaa099f7659f8cc,,,,,,,,,,,,,,,,,,,,FF,,,,,,,,0,2.076835,,,,,,,,,,,,,,,,,,,,,,,,,,,7,-36.7999891,94.39999497,1,0,0,response7disk,6,121,-11.99998873,5.599993646,1,0,0,rectangle,-11.99998873,5.599993646,1,0,0,0,0,0,0.00073,-11.99998873,5.599993646,1,0,0,0,120,120,31,1,,,,,,,,,,,,,,,,,,,,,
,,,,,,,,,,,,,,,,,,,,,,,,,,,,,,,,,,,,,,,,,,,5fa44fa36ad9c1039f9988e1,5ff3a3de3986cc99928e6dda,2021-01-04_23h42.00.873,Colour_Similarity_Experiment_v1,2020.1.2,Win32,60,5ff3a352adaa099f7659f8cc,,,,,,,,,,,,,,,,,,,,FF,,,,,,,,0,1.199305,,,,,,,,,,,,,,,,,,,,,,,,,,,6,-24.79998893,59.99999446,1,0,0,response7disk,6,122,-5.599988639,8.799993694,1,0,0,rectangle,-5.599988639,8.799993694,1,0,0,0,5,0,0.000835,-5.599988639,8.799993694,1,0,0,0,121,121,91,1,,,,,,,,,,,,,,,,,,,,,
,,,,,,,,,,,,,,,,,,,,,,,,,,,,,,,,,,,,,,,,,,,5fa44fa36ad9c1039f9988e1,5ff3a3de3986cc99928e6dda,2021-01-04_23h42.00.873,Colour_Similarity_Experiment_v1,2020.1.2,Win32,60,5ff3a352adaa099f7659f8cc,,,,,,,,,,,,,,,,,,,,FF,,,,,,,,7,1.330785,,,,,,,,,,,,,,,,,,,,,,,,,,,6,31.20001191,76.79999471,1,0,0,response1disk,8,123,-1.59998858,3.19999361,1,0,0,rectangle,-1.59998858,3.19999361,1,0,0,0,6,0,0.00075,-1.59998858,3.19999361,1,0,0,0,122,122,133,1,,,,,,,,,,,,,,,,,,,,,
,,,,,,,,,,,,,,,,,,,,,,,,,,,,,,,,,,,,,,,,,,,5fa44fa36ad9c1039f9988e1,5ff3a3de3986cc99928e6dda,2021-01-04_23h42.00.873,Colour_Similarity_Experiment_v1,2020.1.2,Win32,60,5ff3a352adaa099f7659f8cc,,,,,,,,,,,,,,,,,,,,PF,,,,,,,,0,1.40777,,,,,,,,,,,,,,,,,,,,,,,,,,,6,-30.39994018,40.79999417,1,0,0,response7disk,5,124,-10.39993988,-4.000006497,1,0,0,rectangle,-10.39993988,-4.000006497,1,0,0,0,4,0,0.000765,-10.39993988,-4.000006497,1,0,0,0,123,123,59,1,,,,,,,,,,,,,,,,,,,,,
,,,,,,,,,,,,,,,,,,,,,,,,,,,,,,,,,,,,,,,,,,,5fa44fa36ad9c1039f9988e1,5ff3a3de3986cc99928e6dda,2021-01-04_23h42.00.873,Colour_Similarity_Experiment_v1,2020.1.2,Win32,60,5ff3a352adaa099f7659f8cc,,,,,,,,,,,,,,,,,,,,FF,,,,,,,,0,1.345285,,,,,,,,,,,,,,,,,,,,,,,,,,,3,-22.39994006,59.99999446,1,0,0,response7disk,5,125,1.600060296,1.599993587,1,0,0,rectangle,1.600060296,1.599993587,1,0,0,0,3,0,0.000825,1.600060296,1.599993587,1,0,0,0,124,124,101,1,,,,,,,,,,,,,,,,,,,,,
,,,,,,,,,,,,,,,,,,,,,,,,,,,,,,,,,,,,,,,,,,,5fa44fa36ad9c1039f9988e1,5ff3a3de3986cc99928e6dda,2021-01-04_23h42.00.873,Colour_Similarity_Experiment_v1,2020.1.2,Win32,60,5ff3a352adaa099f7659f8cc,,,,,,,,,,,,,,,,,,,,FF,,,,,,,,7,2.037375,,,,,,,,,,,,,,,,,,,,,,,,,,,7,34.40001196,79.99999475,1,0,0,response1disk,8,126,-6.399939823,13.59999377,1,0,0,rectangle,-30.39994018,49.5999943,1,0,0,0,0,1,2.11228,-16.79998881,-0.800006449,1,0,0,0,125,125,97,1,response7disk_3,rectangle,,,,,,,,,,,,,,,,,,,
,,,,,,,,,,,,,,,,,,,,,,,,,,,,,,,,,,,,,,,,,,,5fa44fa36ad9c1039f9988e1,5ff3a3de3986cc99928e6dda,2021-01-04_23h42.00.873,Colour_Similarity_Experiment_v1,2020.1.2,Win32,60,5ff3a352adaa099f7659f8cc,,,,,,,,,,,,,,,,,,,,PF,,,,,,,,0,2.06161,,,,,,,,,,,,,,,,,,,,,,,,,,,5,-45.59998924,62.39999449,1,0,0,response7disk,2,127,-13.59998876,15.19999379,1,0,0,rectangle,-13.59998876,15.19999379,1,0,0,0,1,0,0.000715,-13.59998876,15.19999379,1,0,0,0,126,126,129,1,,,,,,,,,,,,,,,,,,,,,
,,,,,,,,,,,,,,,,,,,,,,,,,,,,,,,,,,,,,,,,,,,5fa44fa36ad9c1039f9988e1,5ff3a3de3986cc99928e6dda,2021-01-04_23h42.00.873,Colour_Similarity_Experiment_v1,2020.1.2,Win32,60,5ff3a352adaa099f7659f8cc,,,,,,,,,,,,,,,,,,,,FF,,,,,,,,3,2.118855,,,,,,,,,,,,,,,,,,,,,,,,,,,2,-28.79998899,-60.00000733,1,0,0,response5disk,1,128,-8.799988687,-7.200006545,1,0,0,rectangle,-8.799988687,-7.200006545,1,0,0,0,4,0,0.00159,-8.799988687,-7.200006545,1,0,0,0,127,127,85,1,,,,,,,,,,,,,,,,,,,,,
,,,,,,,,,,,,,,,,,,,,,,,,,,,,,,,,,,,,,,,,,,,5fa44fa36ad9c1039f9988e1,5ff3a3de3986cc99928e6dda,2021-01-04_23h42.00.873,Colour_Similarity_Experiment_v1,2020.1.2,Win32,60,5ff3a352adaa099f7659f8cc,,,,,,,,,,,,,,,,,,,,FF,,,,,,,,0,1.459535,,,,,,,,,,,,,,,,,,,,,,,,,,,5,-24.79998893,56.79999441,1,0,0,response7disk,6,129,-24.79998893,2.399993598,1,0,0,rectangle,-24.79998893,2.399993598,1,0,0,0,7,0,0.000665,-24.79998893,2.399993598,1,0,0,0,128,128,12,1,,,,,,,,,,,,,,,,,,,,,
,,,,,,,,,,,,,,,,,,,,,,,,,,,,,,,,,,,,,,,,,,,5fa44fa36ad9c1039f9988e1,5ff3a3de3986cc99928e6dda,2021-01-04_23h42.00.873,Colour_Similarity_Experiment_v1,2020.1.2,Win32,60,5ff3a352adaa099f7659f8cc,,,,,,,,,,,,,,,,,,,,PF,,,,,,,,0,1.057565,,,,,,,,,,,,,,,,,,,,,,,,,,,3,-37.59998912,51.19996991,1,0,0,response7disk,3,130,-14.39993994,-4.800006509,1,0,0,rectangle,-14.39993994,-4.800006509,1,0,0,0,7,0,0.00239,-14.39993994,-4.800006509,1,0,0,0,129,129,4,1,,,,,,,,,,,,,,,,,,,,,
,,,,,,,,,,,,,,,,,,,,,,,,,,,,,,,,,,,,,,,,,,,5fa44fa36ad9c1039f9988e1,5ff3a3de3986cc99928e6dda,2021-01-04_23h42.00.873,Colour_Similarity_Experiment_v1,2020.1.2,Win32,60,5ff3a352adaa099f7659f8cc,,,,,,,,,,,,,,,,,,,,PF,,,,,,,,7,1.67964,,,,,,,,,,,,,,,,,,,,,,,,,,,8,55.20001227,79.19997033,1,0,0,response1disk,1,131,-3.199988604,-11.2000066,1,0,0,rectangle,-3.199988604,-11.2000066,1,0,0,0,6,0,0.000855,-3.199988604,-11.2000066,1,0,0,0,130,130,57,1,,,,,,,,,,,,,,,,,,,,,
,,,,,,,,,,,,,,,,,,,,,,,,,,,,,,,,,,,,,,,,,,,5fa44fa36ad9c1039f9988e1,5ff3a3de3986cc99928e6dda,2021-01-04_23h42.00.873,Colour_Similarity_Experiment_v1,2020.1.2,Win32,60,5ff3a352adaa099f7659f8cc,,,,,,,,,,,,,,,,,,,,FF,,,,,,,,7,1.6853,,,,,,,,,,,,,,,,,,,,,,,,,,,4,51.20001221,83.99999481,1,0,0,response1disk,7,132,26.40001184,11.99999374,1,0,0,rectangle,26.40001184,11.99999374,1,0,0,0,5,0,0.00101,26.40001184,11.99999374,1,0,0,0,131,131,87,1,,,,,,,,,,,,,,,,,,,,,
,,,,,,,,,,,,,,,,,,,,,,,,,,,,,,,,,,,,,,,,,,,5fa44fa36ad9c1039f9988e1,5ff3a3de3986cc99928e6dda,2021-01-04_23h42.00.873,Colour_Similarity_Experiment_v1,2020.1.2,Win32,60,5ff3a352adaa099f7659f8cc,,,,,,,,,,,,,,,,,,,,FF,,,,,,,,7,1.762525,,,,,,,,,,,,,,,,,,,,,,,,,,,8,47.20001215,92.79999495,1,0,0,response1disk,4,133,0.800011456,2.399993598,1,0,0,rectangle,0.800011456,2.399993598,1,0,0,0,7,0,0.000805,0.800011456,2.399993598,1,0,0,0,132,132,88,1,,,,,,,,,,,,,,,,,,,,,
,,,,,,,,,,,,,,,,,,,,,,,,,,,,,,,,,,,,,,,,,,,5fa44fa36ad9c1039f9988e1,5ff3a3de3986cc99928e6dda,2021-01-04_23h42.00.873,Colour_Similarity_Experiment_v1,2020.1.2,Win32,60,5ff3a352adaa099f7659f8cc,,,,,,,,,,,,,,,,,,,,PF,,,,,,,,7,1.72718,,,,,,,,,,,,,,,,,,,,,,,,,,,3,25.60006065,69.5999946,1,0,0,response1disk,1,134,3.200011492,8.799993694,1,0,0,rectangle,3.200011492,8.799993694,1,0,0,0,4,0,0.001015,3.200011492,8.799993694,1,0,0,0,133,133,96,1,,,,,,,,,,,,,,,,,,,,,
,,,,,,,,,,,,,,,,,,,,,,,,,,,,,,,,,,,,,,,,,,,5fa44fa36ad9c1039f9988e1,5ff3a3de3986cc99928e6dda,2021-01-04_23h42.00.873,Colour_Similarity_Experiment_v1,2020.1.2,Win32,60,5ff3a352adaa099f7659f8cc,,,,,,,,,,,,,,,,,,,,FF,,,,,,,,0,1.337385,,,,,,,,,,,,,,,,,,,,,,,,,,,1,-23.1999889,63.99999452,1,0,0,response7disk,1,135,-3.199988604,7.999993682,1,0,0,rectangle,-3.199988604,7.999993682,1,0,0,0,0,0,0.000685,-3.199988604,7.999993682,1,0,0,0,134,134,151,1,,,,,,,,,,,,,,,,,,,,,
,,,,,,,,,,,,,,,,,,,,,,,,,,,,,,,,,,,,,,,,,,,5fa44fa36ad9c1039f9988e1,5ff3a3de3986cc99928e6dda,2021-01-04_23h42.00.873,Colour_Similarity_Experiment_v1,2020.1.2,Win32,60,5ff3a352adaa099f7659f8cc,,,,,,,,,,,,,,,,,,,,FF,,,,,,,,0,1.684835,,,,,,,,,,,,,,,,,,,,,,,,,,,6,-31.19998902,52.79999435,1,0,0,response7disk,7,136,-8.799988687,12.79999375,1,0,0,rectangle,-8.799988687,12.79999375,1,0,0,0,7,0,0.00081,-8.799988687,12.79999375,1,0,0,0,135,135,18,1,,,,,,,,,,,,,,,,,,,,,
,,,,,,,,,,,,,,,,,,,,,,,,,,,,,,,,,,,,,,,,,,,5fa44fa36ad9c1039f9988e1,5ff3a3de3986cc99928e6dda,2021-01-04_23h42.00.873,Colour_Similarity_Experiment_v1,2020.1.2,Win32,60,5ff3a352adaa099f7659f8cc,,,,,,,,,,,,,,,,,,,,FF,,,,,,,,0,1.376825,,,,,,,,,,,,,,,,,,,,,,,,,,,8,-26.39994012,45.59999424,1,0,0,response7disk,9,137,-20.79998887,15.19999379,1,0,0,rectangle,-20.79998887,15.19999379,1,0,0,0,0,0,0.000765,-20.79998887,15.19999379,1,0,0,0,136,136,105,1,,,,,,,,,,,,,,,,,,,,,
,,,,,,,,,,,,,,,,,,,,,,,,,,,,,,,,,,,,,,,,,,,5fa44fa36ad9c1039f9988e1,5ff3a3de3986cc99928e6dda,2021-01-04_23h42.00.873,Colour_Similarity_Experiment_v1,2020.1.2,Win32,60,5ff3a352adaa099f7659f8cc,,,,,,,,,,,,,,,,,,,,FF,,,,,,,,7,1.285145,,,,,,,,,,,,,,,,,,,,,,,,,,,8,32.80001193,65.59999454,1,0,0,response1disk,5,138,-11.19998872,5.599993646,1,0,0,rectangle,-11.19998872,5.599993646,1,0,0,0,3,0,0.00072,-11.19998872,5.599993646,1,0,0,0,137,137,152,1,,,,,,,,,,,,,,,,,,,,,
,,,,,,,,,,,,,,,,,,,,,,,,,,,,,,,,,,,,,,,,,,,5fa44fa36ad9c1039f9988e1,5ff3a3de3986cc99928e6dda,2021-01-04_23h42.00.873,Colour_Similarity_Experiment_v1,2020.1.2,Win32,60,5ff3a352adaa099f7659f8cc,,,,,,,,,,,,,,,,,,,,FF,,,,,,,,7,2.08134,,,,,,,,,,,,,,,,,,,,,,,,,,,9,26.40001184,59.99999446,1,0,0,response1disk,4,139,-4.799988627,-3.200006485,1,0,0,rectangle,-4.799988627,-3.200006485,1,0,0,0,6,0,0.00078,-4.799988627,-3.200006485,1,0,0,0,138,138,60,1,,,,,,,,,,,,,,,,,,,,,
,,,,,,,,,,,,,,,,,,,,,,,,,,,,,,,,,,,,,,,,,,,5fa44fa36ad9c1039f9988e1,5ff3a3de3986cc99928e6dda,2021-01-04_23h42.00.873,Colour_Similarity_Experiment_v1,2020.1.2,Win32,60,5ff3a352adaa099f7659f8cc,,,,,,,,,,,,,,,,,,,,FF,,,,,,,,7,1.24284,,,,,,,,,,,,,,,,,,,,,,,,,,,1,36.80001199,51.99999434,1,0,0,response1disk,6,140,7.200011551,5.599993646,1,0,0,rectangle,7.200011551,5.599993646,1,0,0,0,5,0,0.000745,7.200011551,5.599993646,1,0,0,0,139,139,58,1,,,,,,,,,,,,,,,,,,,,,
,,,,,,,,,,,,,,,,,,,,,,,,,,,,,,,,,,,,,,,,,,,5fa44fa36ad9c1039f9988e1,5ff3a3de3986cc99928e6dda,2021-01-04_23h42.00.873,Colour_Similarity_Experiment_v1,2020.1.2,Win32,60,5ff3a352adaa099f7659f8cc,,,,,,,,,,,,,,,,,,,,PF,,,,,,,,7,3.013655,,,,,,,,,,,,,,,,,,,,,,,,,,,8,24.0000118,42.39999419,1,0,0,response1disk,4,141,0.800011456,-6.400006533,1,0,0,rectangle,0.800011456,-6.400006533,1,0,0,0,5,0,0.000905,0.800011456,-6.400006533,1,0,0,0,140,140,78,1,,,,,,,,,,,,,,,,,,,,,
,,,,,,,,,,,,,,,,,,,,,,,,,,,,,,,,,,,,,,,,,,,5fa44fa36ad9c1039f9988e1,5ff3a3de3986cc99928e6dda,2021-01-04_23h42.00.873,Colour_Similarity_Experiment_v1,2020.1.2,Win32,60,5ff3a352adaa099f7659f8cc,,,,,,,,,,,,,,,,,,,,PF,,,,,,,,0,1.89102,,,,,,,,,,,,,,,,,,,,,,,,,,,5,-25.59998894,61.59999448,1,0,0,response7disk,6,142,-7.199988663,9.599993706,1,0,0,rectangle,-7.199988663,9.599993706,1,0,0,0,0,0,0.000945,-7.199988663,9.599993706,1,0,0,0,141,141,103,1,,,,,,,,,,,,,,,,,,,,,
,,,,,,,,,,,,,,,,,,,,,,,,,,,,,,,,,,,,,,,,,,,5fa44fa36ad9c1039f9988e1,5ff3a3de3986cc99928e6dda,2021-01-04_23h42.00.873,Colour_Similarity_Experiment_v1,2020.1.2,Win32,60,5ff3a352adaa099f7659f8cc,,,,,,,,,,,,,,,,,,,,FF,,,,,,,,7,1.369305,,,,,,,,,,,,,,,,,,,,,,,,,,,2,33.60006077,53.59999436,1,0,0,response1disk,4,143,-1.59998858,2.399993598,1,0,0,rectangle,-1.59998858,2.399993598,1,0,0,0,6,0,0.00204,-1.59998858,2.399993598,1,0,0,0,142,142,145,1,,,,,,,,,,,,,,,,,,,,,
,,,,,,,,,,,,,,,,,,,,,,,,,,,,,,,,,,,,,,,,,,,5fa44fa36ad9c1039f9988e1,5ff3a3de3986cc99928e6dda,2021-01-04_23h42.00.873,Colour_Similarity_Experiment_v1,2020.1.2,Win32,60,5ff3a352adaa099f7659f8cc,,,,,,,,,,,,,,,,,,,,PF,,,,,,,,0,1.682195,,,,,,,,,,,,,,,,,,,,,,,,,,,5,-25.59998894,59.99999446,1,0,0,response7disk,4,144,-0.799988568,-8.000006557,1,0,0,rectangle,-0.799988568,-8.000006557,1,0,0,0,7,0,0.001015,-0.799988568,-8.000006557,1,0,0,0,143,143,54,1,,,,,,,,,,,,,,,,,,,,,
,,,,,,,,,,,,,,,,,,,,,,,,,,,,,,,,,,,,,,,,,,,5fa44fa36ad9c1039f9988e1,5ff3a3de3986cc99928e6dda,2021-01-04_23h42.00.873,Colour_Similarity_Experiment_v1,2020.1.2,Win32,60,5ff3a352adaa099f7659f8cc,,,,,,,,,,,,,,,,,,,,PF,,,,,,,,0,1.37626,,,,,,,,,,,,,,,,,,,,,,,,,,,3,-24.79998893,35.19996967,1,0,0,response7disk,4,145,-6.399939823,8.799993694,1,0,0,rectangle,-6.399939823,8.799993694,1,0,0,0,2,0,0.00073,-6.399939823,8.799993694,1,0,0,0,144,144,30,1,,,,,,,,,,,,,,,,,,,,,
,,,,,,,,,,,,,,,,,,,,,,,,,,,,,,,,,,,,,,,,,,,5fa44fa36ad9c1039f9988e1,5ff3a3de3986cc99928e6dda,2021-01-04_23h42.00.873,Colour_Similarity_Experiment_v1,2020.1.2,Win32,60,5ff3a352adaa099f7659f8cc,,,,,,,,,,,,,,,,,,,,PF,,,,,,,,0,1.467675,,,,,,,,,,,,,,,,,,,,,,,,,,,1,-22.39994006,36.79999411,1,0,0,response7disk,1,146,-7.199988663,-5.600006521,1,0,0,rectangle,59.20001233,51.19996991,1,0,0,6,6,1,2.109295,-14.39993994,4.799993634,1,0,0,0,145,145,76,1,response1disk_3,rectangle,,,,,,,,,,,,,,,,,,,
,,,,,,,,,,,,,,,,,,,,,,,,,,,,,,,,,,,,,,,,,,,5fa44fa36ad9c1039f9988e1,5ff3a3de3986cc99928e6dda,2021-01-04_23h42.00.873,Colour_Similarity_Experiment_v1,2020.1.2,Win32,60,5ff3a352adaa099f7659f8cc,,,,,,,,,,,,,,,,,,,,PF,,,,,,,,0,1.20335,,,,,,,,,,,,,,,,,,,,,,,,,,,6,-31.19998902,50.39999431,1,0,0,response7disk,3,147,-10.39993988,6.399993658,1,0,0,rectangle,-10.39993988,6.399993658,1,0,0,6,1,0,0.00068,-10.39993988,6.399993658,1,0,0,0,146,146,26,1,,,,,,,,,,,,,,,,,,,,,
,,,,,,,,,,,,,,,,,,,,,,,,,,,,,,,,,,,,,,,,,,,5fa44fa36ad9c1039f9988e1,5ff3a3de3986cc99928e6dda,2021-01-04_23h42.00.873,Colour_Similarity_Experiment_v1,2020.1.2,Win32,60,5ff3a352adaa099f7659f8cc,,,,,,,,,,,,,,,,,,,,FF,,,,,,,,0,1.268325,,,,,,,,,,,,,,,,,,,,,,,,,,,9,-23.1999889,47.19996985,1,0,0,response7disk,5,148,7.200011551,9.599993706,1,0,0,rectangle,7.200011551,9.599993706,1,0,0,6,2,0,0.000815,7.200011551,9.599993706,1,0,0,0,147,147,128,1,,,,,,,,,,,,,,,,,,,,,
,,,,,,,,,,,,,,,,,,,,,,,,,,,,,,,,,,,,,,,,,,,5fa44fa36ad9c1039f9988e1,5ff3a3de3986cc99928e6dda,2021-01-04_23h42.00.873,Colour_Similarity_Experiment_v1,2020.1.2,Win32,60,5ff3a352adaa099f7659f8cc,,,,,,,,,,,,,,,,,,,,FF,,,,,,,,0,3.01636,,,,,,,,,,,,,,,,,,,,,,,,,,,5,-27.99998897,44.79999423,1,0,0,response7disk,4,149,-1.59998858,9.599993706,1,0,0,rectangle,-1.59998858,9.599993706,1,0,0,6,3,0,0.001105,-1.59998858,9.599993706,1,0,0,0,148,148,8,1,,,,,,,,,,,,,,,,,,,,,
,,,,,,,,,,,,,,,,,,,,,,,,,,,,,,,,,,,,,,,,,,,5fa44fa36ad9c1039f9988e1,5ff3a3de3986cc99928e6dda,2021-01-04_23h42.00.873,Colour_Similarity_Experiment_v1,2020.1.2,Win32,60,5ff3a352adaa099f7659f8cc,,,,,,,,,,,,,,,,,,,,PF,,,,,,,,0,0.983485,,,,,,,,,,,,,,,,,,,,,,,,,,,7,-26.39994012,57.59999442,1,0,0,response7disk,7,150,-10.39993988,1.599993587,1,0,0,rectangle,-10.39993988,1.599993587,1,0,0,6,2,0,0.000775,-10.39993988,1.599993587,1,0,0,0,149,149,51,1,,,,,,,,,,,,,,,,,,,,,
,,,,,,,,,,,,,,,,,,,,,,,,,,,,,,,,,,,,,,,,,,,5fa44fa36ad9c1039f9988e1,5ff3a3de3986cc99928e6dda,2021-01-04_23h42.00.873,Colour_Similarity_Experiment_v1,2020.1.2,Win32,60,5ff3a352adaa099f7659f8cc,,,,,,,,,,,,,,,,,,,,PF,,,,,,,,7,1.33577,,,,,,,,,,,,,,,,,,,,,,,,,,,2,45.60006095,65.59999454,1,0,0,response1disk,5,151,-0.799988568,11.19999373,1,0,0,rectangle,-0.799988568,11.19999373,1,0,0,6,5,0,0.000775,-0.799988568,11.19999373,1,0,0,0,150,150,147,1,,,,,,,,,,,,,,,,,,,,,
,,,,,,,,,,,,,,,,,,,,,,,,,,,,,,,,,,,,,,,,,,,5fa44fa36ad9c1039f9988e1,5ff3a3de3986cc99928e6dda,2021-01-04_23h42.00.873,Colour_Similarity_Experiment_v1,2020.1.2,Win32,60,5ff3a352adaa099f7659f8cc,,,,,,,,,,,,,,,,,,,,FF,,,,,,,,0,1.286875,,,,,,,,,,,,,,,,,,,,,,,,,,,1,-35.19998908,49.5999943,1,0,0,response7disk,2,152,-15.99998879,1.599993587,1,0,0,rectangle,-15.99998879,1.599993587,1,0,0,6,2,0,0.00091,-15.99998879,1.599993587,1,0,0,0,151,151,2,1,,,,,,,,,,,,,,,,,,,,,
,,,,,,,,,,,,,,,,,,,,,,,,,,,,,,,,,,,,,,,,,,,5fa44fa36ad9c1039f9988e1,5ff3a3de3986cc99928e6dda,2021-01-04_23h42.00.873,Colour_Similarity_Experiment_v1,2020.1.2,Win32,60,5ff3a352adaa099f7659f8cc,,,,,,,,,,,,,,,,,,,,PF,,,,,,,,7,1.216605,,,,,,,,,,,,,,,,,,,,,,,,,,,3,38.40001202,67.19997015,1,0,0,response1disk,9,153,11.20001161,14.39999378,1,0,0,rectangle,11.20001161,14.39999378,1,0,0,6,1,0,0.00074,11.20001161,14.39999378,1,0,0,0,152,152,79,1,,,,,,,,,,,,,,,,,,,,,
,,,,,,,,,,,,,,,,,,,,,,,,,,,,,,,,,,,,,,,,,,,5fa44fa36ad9c1039f9988e1,5ff3a3de3986cc99928e6dda,2021-01-04_23h42.00.873,Colour_Similarity_Experiment_v1,2020.1.2,Win32,60,5ff3a352adaa099f7659f8cc,,,,,,,,,,,,,,,,,,,,FF,,,,,,,,7,1.528845,,,,,,,,,,,,,,,,,,,,,,,,,,,8,35.20001197,59.19997003,1,0,0,response1disk,1,154,-1.59998858,10.39999372,1,0,0,rectangle,-1.59998858,10.39999372,1,0,0,6,7,0,0.00067,-1.59998858,10.39999372,1,0,0,0,153,153,20,1,,,,,,,,,,,,,,,,,,,,,
,,,,,,,,,,,,,,,,,,,,,,,,,,,,,,,,,,,,,,,,,,,5fa44fa36ad9c1039f9988e1,5ff3a3de3986cc99928e6dda,2021-01-04_23h42.00.873,Colour_Similarity_Experiment_v1,2020.1.2,Win32,60,5ff3a352adaa099f7659f8cc,,,,,,,,,,,,,,,,,,,,FF,,,,,,,,7,1.50155,,,,,,,,,,,,,,,,,,,,,,,,,,,3,28.00001186,55.9999944,1,0,0,response1disk,8,155,-10.39993988,-2.400006473,1,0,0,rectangle,-10.39993988,-2.400006473,1,0,0,6,6,0,0.00065,-10.39993988,-2.400006473,1,0,0,0,154,154,44,1,,,,,,,,,,,,,,,,,,,,,
,,,,,,,,,,,,,,,,,,,,,,,,,,,,,,,,,,,,,,,,,,,5fa44fa36ad9c1039f9988e1,5ff3a3de3986cc99928e6dda,2021-01-04_23h42.00.873,Colour_Similarity_Experiment_v1,2020.1.2,Win32,60,5ff3a352adaa099f7659f8cc,,,,,,,,,,,,,,,,,,,,PF,,,,,,,,0,2.049865,,,,,,,,,,,,,,,,,,,,,,,,,,,4,-21.59998888,50.39999431,1,0,0,response7disk,6,156,-1.59998858,-4.000006497,1,0,0,rectangle,-1.59998858,-4.000006497,1,0,0,6,3,0,0.00086,-1.59998858,-4.000006497,1,0,0,0,155,155,120,1,,,,,,,,,,,,,,,,,,,,,
,,,,,,,,,,,,,,,,,,,,,,,,,,,,,,,,,,,,,,,,,,,5fa44fa36ad9c1039f9988e1,5ff3a3de3986cc99928e6dda,2021-01-04_23h42.00.873,Colour_Similarity_Experiment_v1,2020.1.2,Win32,60,5ff3a352adaa099f7659f8cc,,,,,,,,,,,,,,,,,,,,PF,,,,,,,,7,2.016535,,,,,,,,,,,,,,,,,,,,,,,,,,,6,27.20001185,52.79999435,1,0,0,response1disk,2,157,-9.599988699,0.799993575,1,0,0,rectangle,-9.599988699,0.799993575,1,0,0,6,6,0,0.00082,-9.599988699,0.799993575,1,0,0,0,156,156,130,1,,,,,,,,,,,,,,,,,,,,,
,,,,,,,,,,,,,,,,,,,,,,,,,,,,,,,,,,,,,,,,,,,5fa44fa36ad9c1039f9988e1,5ff3a3de3986cc99928e6dda,2021-01-04_23h42.00.873,Colour_Similarity_Experiment_v1,2020.1.2,Win32,60,5ff3a352adaa099f7659f8cc,,,,,,,,,,,,,,,,,,,,PF,,,,,,,,7,1.756805,,,,,,,,,,,,,,,,,,,,,,,,,,,7,47.20001215,52.79999435,1,0,0,response1disk,3,158,-11.19998872,8.799993694,1,0,0,rectangle,-11.19998872,8.799993694,1,0,0,6,4,0,0.000825,-11.19998872,8.799993694,1,0,0,0,157,157,81,1,,,,,,,,,,,,,,,,,,,,,
,,,,,,,,,,,,,,,,,,,,,,,,,,,,,,,,,,,,,,,,,,,5fa44fa36ad9c1039f9988e1,5ff3a3de3986cc99928e6dda,2021-01-04_23h42.00.873,Colour_Similarity_Experiment_v1,2020.1.2,Win32,60,5ff3a352adaa099f7659f8cc,,,,,,,,,,,,,,,,,,,,PF,,,,,,,,7,1.51667,,,,,,,,,,,,,,,,,,,,,,,,,,,1,42.40001208,55.9999944,1,0,0,response1disk,2,159,5.600060356,1.599993587,1,0,0,rectangle,5.600060356,1.599993587,1,0,0,6,6,0,0.00072,5.600060356,1.599993587,1,0,0,0,158,158,24,1,,,,,,,,,,,,,,,,,,,,,
,,,,,,,,,,,,,,,,,,,,,,,,,,,,,,,,,,,,,,,,,,,5fa44fa36ad9c1039f9988e1,5ff3a3de3986cc99928e6dda,2021-01-04_23h42.00.873,Colour_Similarity_Experiment_v1,2020.1.2,Win32,60,5ff3a352adaa099f7659f8cc,,,,,,,,,,,,,,,,,,,,FF,,,,,,,,0,2.36397,,,,,,,,,,,,,,,,,,,,,,,,,,,2,-22.39994006,38.39999413,1,0,0,response7disk,3,160,-29.599989,9.599993706,1,0,0,rectangle,46.40001214,127.9999955,1,0,0,7,7,1,1.82873,-0.799988568,14.39999378,1,0,0,0,159,159,104,1,response1disk_3,rectangle,,,,,,,,,,,,,,,,,,,
,,,,,,,,,,,,,,,,,,,,,,,,,,,,,,,,,,,,,,,,,,,5fa44fa36ad9c1039f9988e1,5ff3a3de3986cc99928e6dda,2021-01-04_23h42.00.873,Colour_Similarity_Experiment_v1,2020.1.2,Win32,60,5ff3a352adaa099f7659f8cc,,,,,,,,,,,,,,,,,,,,PF,,,,,,,,7,2.96909,,,,,,,,,,,,,,,,,,,,,,,,,,,9,53.60001224,87.99999487,1,0,0,response1disk,8,161,-11.19998872,-5.600006521,1,0,0,rectangle,-11.19998872,-5.600006521,1,0,0,7,5,0,0.0007,-11.19998872,-5.600006521,1,0,0,0,160,160,67,1,,,,,,,,,,,,,,,,,,,,,
,,,,,,,,,,,,,,,,,,,,,,,,,,,,,,,,,,,,,,,,,,,5fa44fa36ad9c1039f9988e1,5ff3a3de3986cc99928e6dda,2021-01-04_23h42.00.873,Colour_Similarity_Experiment_v1,2020.1.2,Win32,60,5ff3a352adaa099f7659f8cc,,,,,,,,,,,,,,,,,,,,PF,,,,,,,,7,1.360865,,,,,,,,,,,,,,,,,,,,,,,,,,,6,31.20001191,94.39999497,1,0,0,response1disk,8,162,-11.99998873,2.399993598,1,0,0,rectangle,-11.99998873,2.399993598,1,0,0,7,1,0,0.000905,-11.99998873,2.399993598,1,0,0,0,161,161,64,1,,,,,,,,,,,,,,,,,,,,,
,,,,,,,,,,,,,,,,,,,,,,,,,,,,,,,,,,,,,,,,,,,5fa44fa36ad9c1039f9988e1,5ff3a3de3986cc99928e6dda,2021-01-04_23h42.00.873,Colour_Similarity_Experiment_v1,2020.1.2,Win32,60,5ff3a352adaa099f7659f8cc,,,,,,,,,,,,,,,,,,,,,,,,,,,,,,,,,,,,,,,,,,,,,,,,,,,,,,,,,,,,,,,,,,,,,,,,,,,,,,,,,,,,,,,,,,,,0,0,0,0,1,,,,,,,,,,,,,,
,,,,,,,,,,,,,,,,,,,,,,,,,,,,,,,,,,,,,,,,,,,5fa44fa36ad9c1039f9988e1,5ff3a3de3986cc99928e6dda,2021-01-04_23h42.00.873,Colour_Similarity_Experiment_v1,2020.1.2,Win32,60,5ff3a352adaa099f7659f8cc,,,,,,,,,,,,,,,,,,,,FF,,,,,,,,0,1.40068,,,,,,,,,,,,,,,,,,,,,,,,,,,3,-35.99998909,63.19997009,1,0,0,response7disk,4,163,1.14441E-05,-8.000006557,1,0,0,rectangle,1.14441E-05,-8.000006557,1,0,0,7,2,0,0.00086,1.14441E-05,-8.000006557,1,0,0,0,0,0,110,1,,,,,,,,,,,,,,,,,,,,,
,,,,,,,,,,,,,,,,,,,,,,,,,,,,,,,,,,,,,,,,,,,5fa44fa36ad9c1039f9988e1,5ff3a3de3986cc99928e6dda,2021-01-04_23h42.00.873,Colour_Similarity_Experiment_v1,2020.1.2,Win32,60,5ff3a352adaa099f7659f8cc,,,,,,,,,,,,,,,,,,,,FF,,,,,,,,7,1.31297,,,,,,,,,,,,,,,,,,,,,,,,,,,5,20.00001174,61.59999448,1,0,0,response1disk,1,164,-10.39993988,8.799993694,1,0,0,rectangle,-10.39993988,8.799993694,1,0,0,7,1,0,0.00077,-10.39993988,8.799993694,1,0,0,0,1,1,131,1,,,,,,,,,,,,,,,,,,,,,
,,,,,,,,,,,,,,,,,,,,,,,,,,,,,,,,,,,,,,,,,,,5fa44fa36ad9c1039f9988e1,5ff3a3de3986cc99928e6dda,2021-01-04_23h42.00.873,Colour_Similarity_Experiment_v1,2020.1.2,Win32,60,5ff3a352adaa099f7659f8cc,,,,,,,,,,,,,,,,,,,,FF,,,,,,,,7,1.515405,,,,,,,,,,,,,,,,,,,,,,,,,,,8,44.80001211,60.79999447,1,0,0,response1disk,6,165,8.800011575,0.799993575,1,0,0,rectangle,8.800011575,0.799993575,1,0,0,7,5,0,0.001415,8.800011575,0.799993575,1,0,0,0,2,2,37,1,,,,,,,,,,,,,,,,,,,,,
,,,,,,,,,,,,,,,,,,,,,,,,,,,,,,,,,,,,,,,,,,,5fa44fa36ad9c1039f9988e1,5ff3a3de3986cc99928e6dda,2021-01-04_23h42.00.873,Colour_Similarity_Experiment_v1,2020.1.2,Win32,60,5ff3a352adaa099f7659f8cc,,,,,,,,,,,,,,,,,,,,PF,,,,,,,,7,5.08977,,,,,,,,,,,,,,,,,,,,,,,,,,,8,40.00001204,55.9999944,1,0,0,response1disk,6,166,-10.39993988,1.599993587,1,0,0,rectangle,68.80001247,-32.80000693,1,0,0,5,5,1,2.09332,28.80001187,-8.000006557,1,0,0,0,3,3,161,1,response3disk_3,rectangle,,,,,,,,,,,,,,,,,,,
,,,,,,,,,,,,,,,,,,,,,,,,,,,,,,,,,,,,,,,,,,,5fa44fa36ad9c1039f9988e1,5ff3a3de3986cc99928e6dda,2021-01-04_23h42.00.873,Colour_Similarity_Experiment_v1,2020.1.2,Win32,60,5ff3a352adaa099f7659f8cc,,,,,,,,,,,,,,,,,,,,FF,,,,,,,,0,1.708525,,,,,,,,,,,,,,,,,,,,,,,,,,,5,-26.39994012,58.39999443,1,0,0,response7disk,3,167,-14.39993994,8.799993694,1,0,0,rectangle,-14.39993994,8.799993694,1,0,0,5,2,0,0.00076,-14.39993994,8.799993694,1,0,0,0,4,4,25,1,,,,,,,,,,,,,,,,,,,,,
,,,,,,,,,,,,,,,,,,,,,,,,,,,,,,,,,,,,,,,,,,,5fa44fa36ad9c1039f9988e1,5ff3a3de3986cc99928e6dda,2021-01-04_23h42.00.873,Colour_Similarity_Experiment_v1,2020.1.2,Win32,60,5ff3a352adaa099f7659f8cc,,,,,,,,,,,,,,,,,,,,FF,,,,,,,,7,1.37695,,,,,,,,,,,,,,,,,,,,,,,,,,,7,29.60006071,61.59999448,1,0,0,response1disk,9,168,4.000011504,11.19999373,1,0,0,rectangle,4.000011504,11.19999373,1,0,0,5,3,0,0.0008,4.000011504,11.19999373,1,0,0,0,5,5,155,1,,,,,,,,,,,,,,,,,,,,,
,,,,,,,,,,,,,,,,,,,,,,,,,,,,,,,,,,,,,,,,,,,5fa44fa36ad9c1039f9988e1,5ff3a3de3986cc99928e6dda,2021-01-04_23h42.00.873,Colour_Similarity_Experiment_v1,2020.1.2,Win32,60,5ff3a352adaa099f7659f8cc,,,,,,,,,,,,,,,,,,,,FF,,,,,,,,0,1.718965,,,,,,,,,,,,,,,,,,,,,,,,,,,4,-35.99998909,55.9999944,1,0,0,response7disk,5,169,-3.999988616,-1.600006461,1,0,0,rectangle,-3.999988616,-1.600006461,1,0,0,5,1,0,0.00082,-3.999988616,-1.600006461,1,0,0,0,6,6,116,1,,,,,,,,,,,,,,,,,,,,,
,,,,,,,,,,,,,,,,,,,,,,,,,,,,,,,,,,,,,,,,,,,5fa44fa36ad9c1039f9988e1,5ff3a3de3986cc99928e6dda,2021-01-04_23h42.00.873,Colour_Similarity_Experiment_v1,2020.1.2,Win32,60,5ff3a352adaa099f7659f8cc,,,,,,,,,,,,,,,,,,,,PF,,,,,,,,0,1.027445,,,,,,,,,,,,,,,,,,,,,,,,,,,4,-34.39994024,48.79999429,1,0,0,response7disk,4,170,-15.99998879,8.799993694,1,0,0,rectangle,-15.99998879,8.799993694,1,0,0,5,7,0,0.000885,-15.99998879,8.799993694,1,0,0,0,7,7,70,1,,,,,,,,,,,,,,,,,,,,,
,,,,,,,,,,,,,,,,,,,,,,,,,,,,,,,,,,,,,,,,,,,5fa44fa36ad9c1039f9988e1,5ff3a3de3986cc99928e6dda,2021-01-04_23h42.00.873,Colour_Similarity_Experiment_v1,2020.1.2,Win32,60,5ff3a352adaa099f7659f8cc,,,,,,,,,,,,,,,,,,,,FF,,,,,,,,0,1.03412,,,,,,,,,,,,,,,,,,,,,,,,,,,5,-33.59998906,39.19996973,1,0,0,response7disk,5,171,-16.79998881,6.399993658,1,0,0,rectangle,-16.79998881,6.399993658,1,0,0,5,5,0,0.00068,-16.79998881,6.399993658,1,0,0,0,8,8,19,1,,,,,,,,,,,,,,,,,,,,,
,,,,,,,,,,,,,,,,,,,,,,,,,,,,,,,,,,,,,,,,,,,5fa44fa36ad9c1039f9988e1,5ff3a3de3986cc99928e6dda,2021-01-04_23h42.00.873,Colour_Similarity_Experiment_v1,2020.1.2,Win32,60,5ff3a352adaa099f7659f8cc,,,,,,,,,,,,,,,,,,,,FF,,,,,,,,0,1.41496,,,,,,,,,,,,,,,,,,,,,,,,,,,9,-26.39994012,46.39999425,1,0,0,response7disk,8,172,-11.99998873,12.79999375,1,0,0,rectangle,-11.99998873,12.79999375,1,0,0,5,2,0,0.00087,-11.99998873,12.79999375,1,0,0,0,9,9,6,1,,,,,,,,,,,,,,,,,,,,,
,,,,,,,,,,,,,,,,,,,,,,,,,,,,,,,,,,,,,,,,,,,5fa44fa36ad9c1039f9988e1,5ff3a3de3986cc99928e6dda,2021-01-04_23h42.00.873,Colour_Similarity_Experiment_v1,2020.1.2,Win32,60,5ff3a352adaa099f7659f8cc,,,,,,,,,,,,,,,,,,,,FF,,,,,,,,0,1.35527,,,,,,,,,,,,,,,,,,,,,,,,,,,7,-23.1999889,48.79999429,1,0,0,response7disk,5,173,-5.599988639,-3.200006485,1,0,0,rectangle,-5.599988639,-3.200006485,1,0,0,5,1,0,0.0007,-5.599988639,-3.200006485,1,0,0,0,10,10,156,1,,,,,,,,,,,,,,,,,,,,,
,,,,,,,,,,,,,,,,,,,,,,,,,,,,,,,,,,,,,,,,,,,5fa44fa36ad9c1039f9988e1,5ff3a3de3986cc99928e6dda,2021-01-04_23h42.00.873,Colour_Similarity_Experiment_v1,2020.1.2,Win32,60,5ff3a352adaa099f7659f8cc,,,,,,,,,,,,,,,,,,,,FF,,,,,,,,7,1.358455,,,,,,,,,,,,,,,,,,,,,,,,,,,7,18.40001172,45.59999424,1,0,0,response1disk,8,174,-5.599988639,-0.800006449,1,0,0,rectangle,88.80001277,40.79999417,1,0,0,6,6,1,2.3379,-0.799988568,-8.000006557,1,0,0,0,11,11,97,1,response1disk_3,rectangle,,,,,,,,,,,,,,,,,,,
,,,,,,,,,,,,,,,,,,,,,,,,,,,,,,,,,,,,,,,,,,,5fa44fa36ad9c1039f9988e1,5ff3a3de3986cc99928e6dda,2021-01-04_23h42.00.873,Colour_Similarity_Experiment_v1,2020.1.2,Win32,60,5ff3a352adaa099f7659f8cc,,,,,,,,,,,,,,,,,,,,FF,,,,,,,,7,1.7595,,,,,,,,,,,,,,,,,,,,,,,,,,,1,24.80001181,68.79999459,1,0,0,response1disk,6,175,5.600060356,7.999993682,1,0,0,rectangle,5.600060356,7.999993682,1,0,0,6,5,0,0.000745,5.600060356,7.999993682,1,0,0,0,12,12,58,1,,,,,,,,,,,,,,,,,,,,,
,,,,,,,,,,,,,,,,,,,,,,,,,,,,,,,,,,,,,,,,,,,5fa44fa36ad9c1039f9988e1,5ff3a3de3986cc99928e6dda,2021-01-04_23h42.00.873,Colour_Similarity_Experiment_v1,2020.1.2,Win32,60,5ff3a352adaa099f7659f8cc,,,,,,,,,,,,,,,,,,,,PF,,,,,,,,0,1.49158,,,,,,,,,,,,,,,,,,,,,,,,,,,1,-38.3999403,73.59999466,1,0,0,response7disk,9,176,-15.99998879,1.599993587,1,0,0,rectangle,-15.99998879,1.599993587,1,0,0,6,5,0,0.00249,-15.99998879,1.599993587,1,0,0,0,13,13,15,1,,,,,,,,,,,,,,,,,,,,,
,,,,,,,,,,,,,,,,,,,,,,,,,,,,,,,,,,,,,,,,,,,5fa44fa36ad9c1039f9988e1,5ff3a3de3986cc99928e6dda,2021-01-04_23h42.00.873,Colour_Similarity_Experiment_v1,2020.1.2,Win32,60,5ff3a352adaa099f7659f8cc,,,,,,,,,,,,,,,,,,,,FF,,,,,,,,7,1.43111,,,,,,,,,,,,,,,,,,,,,,,,,,,2,22.40001178,68.79999459,1,0,0,response1disk,6,177,-6.399939823,3.19999361,1,0,0,rectangle,-6.399939823,3.19999361,1,0,0,6,4,0,0.00079,-6.399939823,3.19999361,1,0,0,0,14,14,40,1,,,,,,,,,,,,,,,,,,,,,
,,,,,,,,,,,,,,,,,,,,,,,,,,,,,,,,,,,,,,,,,,,5fa44fa36ad9c1039f9988e1,5ff3a3de3986cc99928e6dda,2021-01-04_23h42.00.873,Colour_Similarity_Experiment_v1,2020.1.2,Win32,60,5ff3a352adaa099f7659f8cc,,,,,,,,,,,,,,,,,,,,PF,,,,,,,,6,1.531175,,,,,,,,,,,,,,,,,,,,,,,,,,,3,72.00001252,67.19997015,1,0,0,response1disk,6,178,-31.19998902,-4.000006497,1,0,0,rectangle,-31.19998902,-4.000006497,1,0,0,6,2,0,0.00117,-31.19998902,-4.000006497,1,0,0,0,15,15,47,1,,,,,,,,,,,,,,,,,,,,,
,,,,,,,,,,,,,,,,,,,,,,,,,,,,,,,,,,,,,,,,,,,5fa44fa36ad9c1039f9988e1,5ff3a3de3986cc99928e6dda,2021-01-04_23h42.00.873,Colour_Similarity_Experiment_v1,2020.1.2,Win32,60,5ff3a352adaa099f7659f8cc,,,,,,,,,,,,,,,,,,,,PF,,,,,,,,7,1.290405,,,,,,,,,,,,,,,,,,,,,,,,,,,8,28.80001187,71.19997021,1,0,0,response1disk,4,179,22.40001178,15.19999379,1,0,0,rectangle,22.40001178,15.19999379,1,0,0,6,1,0,0.00068,22.40001178,15.19999379,1,0,0,0,16,16,78,1,,,,,,,,,,,,,,,,,,,,,
,,,,,,,,,,,,,,,,,,,,,,,,,,,,,,,,,,,,,,,,,,,5fa44fa36ad9c1039f9988e1,5ff3a3de3986cc99928e6dda,2021-01-04_23h42.00.873,Colour_Similarity_Experiment_v1,2020.1.2,Win32,60,5ff3a352adaa099f7659f8cc,,,,,,,,,,,,,,,,,,,,PF,,,,,,,,7,1.01172,,,,,,,,,,,,,,,,,,,,,,,,,,,1,35.20001197,51.99999434,1,0,0,response1disk,6,180,9.600060415,5.599993646,1,0,0,rectangle,9.600060415,5.599993646,1,0,0,6,2,0,0.00073,9.600060415,5.599993646,1,0,0,0,17,17,144,1,,,,,,,,,,,,,,,,,,,,,
,,,,,,,,,,,,,,,,,,,,,,,,,,,,,,,,,,,,,,,,,,,5fa44fa36ad9c1039f9988e1,5ff3a3de3986cc99928e6dda,2021-01-04_23h42.00.873,Colour_Similarity_Experiment_v1,2020.1.2,Win32,60,5ff3a352adaa099f7659f8cc,,,,,,,,,,,,,,,,,,,,FF,,,,,,,,7,1.00902,,,,,,,,,,,,,,,,,,,,,,,,,,,5,28.00001186,49.5999943,1,0,0,response1disk,9,181,1.600060296,2.399993598,1,0,0,rectangle,1.600060296,2.399993598,1,0,0,6,5,0,0.000815,1.600060296,2.399993598,1,0,0,0,18,18,61,1,,,,,,,,,,,,,,,,,,,,,
,,,,,,,,,,,,,,,,,,,,,,,,,,,,,,,,,,,,,,,,,,,5fa44fa36ad9c1039f9988e1,5ff3a3de3986cc99928e6dda,2021-01-04_23h42.00.873,Colour_Similarity_Experiment_v1,2020.1.2,Win32,60,5ff3a352adaa099f7659f8cc,,,,,,,,,,,,,,,,,,,,PF,,,,,,,,0,1.36995,,,,,,,,,,,,,,,,,,,,,,,,,,,4,-16.79998881,47.19996985,1,0,0,response7disk,5,182,6.400011539,-3.200006485,1,0,0,rectangle,6.400011539,-3.200006485,1,0,0,6,3,0,0.000745,6.400011539,-3.200006485,1,0,0,0,19,19,49,1,,,,,,,,,,,,,,,,,,,,,
,,,,,,,,,,,,,,,,,,,,,,,,,,,,,,,,,,,,,,,,,,,5fa44fa36ad9c1039f9988e1,5ff3a3de3986cc99928e6dda,2021-01-04_23h42.00.873,Colour_Similarity_Experiment_v1,2020.1.2,Win32,60,5ff3a352adaa099f7659f8cc,,,,,,,,,,,,,,,,,,,,FF,,,,,,,,7,1.236445,,,,,,,,,,,,,,,,,,,,,,,,,,,1,56.00001228,62.39999449,1,0,0,response1disk,4,183,-9.599988699,11.99999374,1,0,0,rectangle,-9.599988699,11.99999374,1,0,0,6,5,0,0.000785,-9.599988699,11.99999374,1,0,0,0,20,20,135,1,,,,,,,,,,,,,,,,,,,,,
,,,,,,,,,,,,,,,,,,,,,,,,,,,,,,,,,,,,,,,,,,,5fa44fa36ad9c1039f9988e1,5ff3a3de3986cc99928e6dda,2021-01-04_23h42.00.873,Colour_Similarity_Experiment_v1,2020.1.2,Win32,60,5ff3a352adaa099f7659f8cc,,,,,,,,,,,,,,,,,,,,FF,,,,,,,,7,1.168335,,,,,,,,,,,,,,,,,,,,,,,,,,,2,35.20001197,67.99999458,1,0,0,response1disk,8,184,-10.39993988,2.399993598,1,0,0,rectangle,-10.39993988,2.399993598,1,0,0,6,6,0,0.000855,-10.39993988,2.399993598,1,0,0,0,21,21,62,1,,,,,,,,,,,,,,,,,,,,,
,,,,,,,,,,,,,,,,,,,,,,,,,,,,,,,,,,,,,,,,,,,5fa44fa36ad9c1039f9988e1,5ff3a3de3986cc99928e6dda,2021-01-04_23h42.00.873,Colour_Similarity_Experiment_v1,2020.1.2,Win32,60,5ff3a352adaa099f7659f8cc,,,,,,,,,,,,,,,,,,,,FF,,,,,,,,0,1.82201,,,,,,,,,,,,,,,,,,,,,,,,,,,7,-19.99998885,56.79999441,1,0,0,response7disk,6,185,-1.59998858,3.19999361,1,0,0,rectangle,-1.59998858,3.19999361,1,0,0,6,1,0,0.00069,-1.59998858,3.19999361,1,0,0,0,22,22,31,1,,,,,,,,,,,,,,,,,,,,,
,,,,,,,,,,,,,,,,,,,,,,,,,,,,,,,,,,,,,,,,,,,5fa44fa36ad9c1039f9988e1,5ff3a3de3986cc99928e6dda,2021-01-04_23h42.00.873,Colour_Similarity_Experiment_v1,2020.1.2,Win32,60,5ff3a352adaa099f7659f8cc,,,,,,,,,,,,,,,,,,,,PF,,,,,,,,7,1.521675,,,,,,,,,,,,,,,,,,,,,,,,,,,9,44.0000121,71.19997021,1,0,0,response1disk,4,186,-3.999988616,-0.800006449,1,0,0,rectangle,-3.999988616,-0.800006449,1,0,0,6,7,0,0.000815,-3.999988616,-0.800006449,1,0,0,0,23,23,114,1,,,,,,,,,,,,,,,,,,,,,
,,,,,,,,,,,,,,,,,,,,,,,,,,,,,,,,,,,,,,,,,,,5fa44fa36ad9c1039f9988e1,5ff3a3de3986cc99928e6dda,2021-01-04_23h42.00.873,Colour_Similarity_Experiment_v1,2020.1.2,Win32,60,5ff3a352adaa099f7659f8cc,,,,,,,,,,,,,,,,,,,,FF,,,,,,,,7,3.080675,,,,,,,,,,,,,,,,,,,,,,,,,,,2,24.80001181,64.79999453,1,0,0,response1disk,3,187,-3.199988604,5.599993646,1,0,0,rectangle,-37.59998912,75.19997027,1,0,0,0,0,1,1.72083,4.800011516,0.799993575,1,0,0,0,24,24,104,1,response7disk_3,rectangle,,,,,,,,,,,,,,,,,,,
,,,,,,,,,,,,,,,,,,,,,,,,,,,,,,,,,,,,,,,,,,,5fa44fa36ad9c1039f9988e1,5ff3a3de3986cc99928e6dda,2021-01-04_23h42.00.873,Colour_Similarity_Experiment_v1,2020.1.2,Win32,60,5ff3a352adaa099f7659f8cc,,,,,,,,,,,,,,,,,,,,PF,,,,,,,,7,2.170085,,,,,,,,,,,,,,,,,,,,,,,,,,,6,28.80001187,63.99999452,1,0,0,response1disk,9,188,7.200011551,5.599993646,1,0,0,rectangle,7.200011551,5.599993646,1,0,0,0,2,0,0.000875,7.200011551,5.599993646,1,0,0,0,25,25,45,1,,,,,,,,,,,,,,,,,,,,,
,,,,,,,,,,,,,,,,,,,,,,,,,,,,,,,,,,,,,,,,,,,5fa44fa36ad9c1039f9988e1,5ff3a3de3986cc99928e6dda,2021-01-04_23h42.00.873,Colour_Similarity_Experiment_v1,2020.1.2,Win32,60,5ff3a352adaa099f7659f8cc,,,,,,,,,,,,,,,,,,,,FF,,,,,,,,7,1.198605,,,,,,,,,,,,,,,,,,,,,,,,,,,7,32.00001192,61.59999448,1,0,0,response1disk,2,189,-1.59998858,-6.4373E-06,1,0,0,rectangle,-1.59998858,-6.4373E-06,1,0,0,0,3,0,0.00133,-1.59998858,-6.4373E-06,1,0,0,0,26,26,138,1,,,,,,,,,,,,,,,,,,,,,
,,,,,,,,,,,,,,,,,,,,,,,,,,,,,,,,,,,,,,,,,,,5fa44fa36ad9c1039f9988e1,5ff3a3de3986cc99928e6dda,2021-01-04_23h42.00.873,Colour_Similarity_Experiment_v1,2020.1.2,Win32,60,5ff3a352adaa099f7659f8cc,,,,,,,,,,,,,,,,,,,,FF,,,,,,,,7,1.821905,,,,,,,,,,,,,,,,,,,,,,,,,,,8,20.00001174,61.59999448,1,0,0,response1disk,7,190,-1.59998858,1.599993587,1,0,0,rectangle,-1.59998858,1.599993587,1,0,0,0,1,0,0.001075,-1.59998858,1.599993587,1,0,0,0,27,27,86,1,,,,,,,,,,,,,,,,,,,,,
,,,,,,,,,,,,,,,,,,,,,,,,,,,,,,,,,,,,,,,,,,,5fa44fa36ad9c1039f9988e1,5ff3a3de3986cc99928e6dda,2021-01-04_23h42.00.873,Colour_Similarity_Experiment_v1,2020.1.2,Win32,60,5ff3a352adaa099f7659f8cc,,,,,,,,,,,,,,,,,,,,FF,,,,,,,,0,1.321885,,,,,,,,,,,,,,,,,,,,,,,,,,,3,-40.79998916,43.19996979,1,0,0,response7disk,5,191,-5.599988639,-9.60000658,1,0,0,rectangle,-5.599988639,-9.60000658,1,0,0,0,6,0,0.00073,-5.599988639,-9.60000658,1,0,0,0,28,28,101,1,,,,,,,,,,,,,,,,,,,,,
,,,,,,,,,,,,,,,,,,,,,,,,,,,,,,,,,,,,,,,,,,,5fa44fa36ad9c1039f9988e1,5ff3a3de3986cc99928e6dda,2021-01-04_23h42.00.873,Colour_Similarity_Experiment_v1,2020.1.2,Win32,60,5ff3a352adaa099f7659f8cc,,,,,,,,,,,,,,,,,,,,PF,,,,,,,,7,1.50252,,,,,,,,,,,,,,,,,,,,,,,,,,,3,28.00001186,75.9999947,1,0,0,response1disk,7,192,9.600060415,13.59999377,1,0,0,rectangle,9.600060415,13.59999377,1,0,0,0,0,0,0.000885,9.600060415,13.59999377,1,0,0,0,29,29,41,1,,,,,,,,,,,,,,,,,,,,,
,,,,,,,,,,,,,,,,,,,,,,,,,,,,,,,,,,,,,,,,,,,5fa44fa36ad9c1039f9988e1,5ff3a3de3986cc99928e6dda,2021-01-04_23h42.00.873,Colour_Similarity_Experiment_v1,2020.1.2,Win32,60,5ff3a352adaa099f7659f8cc,,,,,,,,,,,,,,,,,,,,PF,,,,,,,,0,1.334845,,,,,,,,,,,,,,,,,,,,,,,,,,,2,-34.39994024,73.59999466,1,0,0,response7disk,3,193,-2.399939764,0.799993575,1,0,0,rectangle,-2.399939764,0.799993575,1,0,0,0,1,0,0.00086,-2.399939764,0.799993575,1,0,0,0,30,30,69,1,,,,,,,,,,,,,,,,,,,,,
,,,,,,,,,,,,,,,,,,,,,,,,,,,,,,,,,,,,,,,,,,,5fa44fa36ad9c1039f9988e1,5ff3a3de3986cc99928e6dda,2021-01-04_23h42.00.873,Colour_Similarity_Experiment_v1,2020.1.2,Win32,60,5ff3a352adaa099f7659f8cc,,,,,,,,,,,,,,,,,,,,PF,,,,,,,,7,1.038905,,,,,,,,,,,,,,,,,,,,,,,,,,,2,32.00001192,69.5999946,1,0,0,response1disk,4,194,11.20001161,15.19999379,1,0,0,rectangle,11.20001161,15.19999379,1,0,0,0,7,0,0.000975,11.20001161,15.19999379,1,0,0,0,31,31,127,1,,,,,,,,,,,,,,,,,,,,,
,,,,,,,,,,,,,,,,,,,,,,,,,,,,,,,,,,,,,,,,,,,5fa44fa36ad9c1039f9988e1,5ff3a3de3986cc99928e6dda,2021-01-04_23h42.00.873,Colour_Similarity_Experiment_v1,2020.1.2,Win32,60,5ff3a352adaa099f7659f8cc,,,,,,,,,,,,,,,,,,,,PF,,,,,,,,0,2.018655,,,,,,,,,,,,,,,,,,,,,,,,,,,1,-42.39994036,87.19997045,1,0,0,response7disk,1,195,12.00001162,-0.800006449,1,0,0,rectangle,82.40001267,46.39999425,1,0,0,6,6,1,1.776165,10.4000116,-13.60000664,1,0,0,0,32,32,76,1,response1disk_3,rectangle,,,,,,,,,,,,,,,,,,,
,,,,,,,,,,,,,,,,,,,,,,,,,,,,,,,,,,,,,,,,,,,5fa44fa36ad9c1039f9988e1,5ff3a3de3986cc99928e6dda,2021-01-04_23h42.00.873,Colour_Similarity_Experiment_v1,2020.1.2,Win32,60,5ff3a352adaa099f7659f8cc,,,,,,,,,,,,,,,,,,,,FF,,,,,,,,7,2.95063,,,,,,,,,,,,,,,,,,,,,,,,,,,3,27.20001185,75.19997027,1,0,0,response1disk,7,196,9.600060415,5.599993646,1,0,0,rectangle,9.600060415,5.599993646,1,0,0,6,6,0,0.000875,9.600060415,5.599993646,1,0,0,0,33,33,118,1,,,,,,,,,,,,,,,,,,,,,
,,,,,,,,,,,,,,,,,,,,,,,,,,,,,,,,,,,,,,,,,,,5fa44fa36ad9c1039f9988e1,5ff3a3de3986cc99928e6dda,2021-01-04_23h42.00.873,Colour_Similarity_Experiment_v1,2020.1.2,Win32,60,5ff3a352adaa099f7659f8cc,,,,,,,,,,,,,,,,,,,,PF,,,,,,,,3,1.850675,,,,,,,,,,,,,,,,,,,,,,,,,,,3,-33.59998906,-42.40000707,1,0,0,response5disk,2,197,7.200011551,3.19999361,1,0,0,rectangle,-67.99998957,45.59999424,1,0,0,1,1,1,1.702885,0.800011456,-3.200006485,1,0,0,0,34,34,36,1,response7disk_3,rectangle,,,,,,,,,,,,,,,,,,,
,,,,,,,,,,,,,,,,,,,,,,,,,,,,,,,,,,,,,,,,,,,5fa44fa36ad9c1039f9988e1,5ff3a3de3986cc99928e6dda,2021-01-04_23h42.00.873,Colour_Similarity_Experiment_v1,2020.1.2,Win32,60,5ff3a352adaa099f7659f8cc,,,,,,,,,,,,,,,,,,,,FF,,,,,,,,7,10.65907,,,,,,,,,,,,,,,,,,,,,,,,,,,8,33.60006077,74.39999467,1,0,0,response1disk,5,198,10.4000116,10.39999372,1,0,0,rectangle,10.4000116,10.39999372,1,0,0,1,5,0,0.000985,10.4000116,10.39999372,1,0,0,0,35,35,152,1,,,,,,,,,,,,,,,,,,,,,
,,,,,,,,,,,,,,,,,,,,,,,,,,,,,,,,,,,,,,,,,,,5fa44fa36ad9c1039f9988e1,5ff3a3de3986cc99928e6dda,2021-01-04_23h42.00.873,Colour_Similarity_Experiment_v1,2020.1.2,Win32,60,5ff3a352adaa099f7659f8cc,,,,,,,,,,,,,,,,,,,,PF,,,,,,,,7,4.8164,,,,,,,,,,,,,,,,,,,,,,,,,,,1,28.00001186,73.59999466,1,0,0,response1disk,3,199,-3.999988616,13.59999377,1,0,0,rectangle,-3.999988616,13.59999377,1,0,0,1,5,0,0.000615,-3.999988616,13.59999377,1,0,0,0,36,36,1,1,,,,,,,,,,,,,,,,,,,,,
