key_resp.keys,key_resp.rt,key_resp_16.keys,key_resp_16.rt,key_resp_2.keys,key_resp_2.rt,X Scale,ratio_pxpermm,screen_size_x,screen_size_y,testsize,key_resp_3.keys,key_resp_3.rt,key_resp_4.keys,key_resp_4.rt,line_size,key_resp_5.keys,key_resp_5.rt,key_resp_6.keys,key_resp_6.rt,key_resp_8.keys,key_resp_8.rt,key_resp_7.keys,key_resp_7.rt,key_resp_12.keys,key_resp_12.rt,key_resp_11.keys,key_resp_11.rt,key_resp_18.keys,key_resp_18.rt,key_resp_21.keys,key_resp_21.rt,key_resp_13.keys,key_resp_13.rt,key_resp_19.keys,key_resp_19.rt,ballposx,viewer_distance,trials.thisRepN,trials.thisTrialN,trials.thisN,trials.thisIndex,trials.ran,participant,session,date,expName,psychopyVersion,OS,frameRate,study_id,viewerdistancecm,DVA_to_distance,radius_F,radius_P,r_F,R_P,key_resp_20.keys,key_resp_20.rt,key_resp_14.keys,key_resp_14.rt,key_resp_15.keys,key_resp_15.rt,key_resp_17.keys,key_resp_17.rt,key_resp_9.keys,key_resp_9.rt,key_resp_10.keys,key_resp_10.rt,Colour_1,Ecc,mouse_5.x,mouse_5.y,mouse_5.leftButton,mouse_5.midButton,mouse_5.rightButton,mouse_5.clicked_name,Colour_2,similarity,response_time,mouse_10.x,mouse_10.y,mouse_10.leftButton,mouse_10.midButton,mouse_10.rightButton,mouse_10.clicked_name,mouse_7.x,mouse_7.y,mouse_7.leftButton,mouse_7.midButton,mouse_7.rightButton,catchnumberprac,mouse_6.x,mouse_6.y,mouse_6.leftButton,mouse_6.midButton,mouse_6.rightButton,duringprac.thisRepN,duringprac.thisTrialN,duringprac.thisN,duringprac.thisIndex,duringprac.ran,mouse_7.clicked_name,catchprac,mouse_6.clicked_name,key_resp_22.keys,key_resp_22.rt,Colour1,mouse.x,mouse.y,mouse.leftButton,mouse.midButton,mouse.rightButton,mouse.clicked_name,Colour2,trialnumber,mouse_2.x,mouse_2.y,mouse_2.leftButton,mouse_2.midButton,mouse_2.rightButton,mouse_2.clicked_name,mouse_3.x,mouse_3.y,mouse_3.leftButton,mouse_3.midButton,mouse_3.rightButton,catchresponse,catchnumber,Catch,response_time_catch,mouse_11.x,mouse_11.y,mouse_11.leftButton,mouse_11.midButton,mouse_11.rightButton,trials_2.thisRepN,trials_2.thisTrialN,trials_2.thisN,trials_2.thisIndex,trials_2.ran,mouse_3.clicked_name,mouse_11.clicked_name,trials_3.thisRepN,trials_3.thisTrialN,trials_3.thisN,trials_3.thisIndex,trials_3.ran,answer1,rt1,answer2,rt2,answer3,rt3,answer4,rt4,answer5,rt5,answer6,rt6,answer7,rt7
space,8.718625,space,1.832905,space,2.456675,60,6,256,144,1536,space,8.80404,space,6.88738,120,space,24.448635,space,5.24211,space,20.162875,space,13.53154,space,8.385495,space,15.46269,space,18.08458,space,15.79259,space,10.62099,return,3.22113,129.024,336.9562153,0,0,0,0,1,5fa948fdaab0ed07d3724eae,5ff3a3a5d1cd501d32523781,2021-01-05_00h27.33.548,Colour_Similarity_Experiment_v1,2020.1.2,Win32,60,5ff3a352adaa099f7659f8cc,,,,,,,,,,,,,,,,,,,,,,,,,,,,,,,,,,,,,,,,,,,,,,,,,,,,,,,,,,,,,,,,,,,,,,,,,,,,,,,,,,,,,,,,,,,,,,,,,,,,,,,,,,,,,,,
,,,,,,,,,,,,,,,,,,,,,,,,,,,,,,,,,,return,3.17523,135.936,332.1577881,1,0,1,0,1,5fa948fdaab0ed07d3724eae,5ff3a3a5d1cd501d32523781,2021-01-05_00h27.33.548,Colour_Similarity_Experiment_v1,2020.1.2,Win32,60,5ff3a352adaa099f7659f8cc,,,,,,,,,,,,,,,,,,,,,,,,,,,,,,,,,,,,,,,,,,,,,,,,,,,,,,,,,,,,,,,,,,,,,,,,,,,,,,,,,,,,,,,,,,,,,,,,,,,,,,,,,,,,,,,
,,,,,,,,,,,,,,,,,,,,,,,,,,,,,,,,,,return,3.308035,117.504,344.9535938,2,0,2,0,1,5fa948fdaab0ed07d3724eae,5ff3a3a5d1cd501d32523781,2021-01-05_00h27.33.548,Colour_Similarity_Experiment_v1,2020.1.2,Win32,60,5ff3a352adaa099f7659f8cc,,,,,,,,,,,,,,,,,,,,,,,,,,,,,,,,,,,,,,,,,,,,,,,,,,,,,,,,,,,,,,,,,,,,,,,,,,,,,,,,,,,,,,,,,,,,,,,,,,,,,,,,,,,,,,,
,,,,,,,,,,,,,,,,,,,,,,,,,,,,,,,,,,return,5.583805,-198.144,564.0817654,3,0,3,0,1,5fa948fdaab0ed07d3724eae,5ff3a3a5d1cd501d32523781,2021-01-05_00h27.33.548,Colour_Similarity_Experiment_v1,2020.1.2,Win32,60,5ff3a352adaa099f7659f8cc,,,,,,,,,,,,,,,,,,,,,,,,,,,,,,,,,,,,,,,,,,,,,,,,,,,,,,,,,,,,,,,,,,,,,,,,,,,,,,,,,,,,,,,,,,,,,,,,,,,,,,,,,,,,,,,
,,,,,,,,,,,,,,,,,,,,,,,,,,,,,,,,,,return,5.244105,-152.064,532.0922513,4,0,4,0,1,5fa948fdaab0ed07d3724eae,5ff3a3a5d1cd501d32523781,2021-01-05_00h27.33.548,Colour_Similarity_Experiment_v1,2020.1.2,Win32,60,5ff3a352adaa099f7659f8cc,,,,,,,,,,,,,,,,,,,,,,,,,,,,,,,,,,,,,,,,,,,,,,,,,,,,,,,,,,,,,,,,,,,,,,,,,,,,,,,,,,,,,,,,,,,,,,,,,,,,,,,,,,,,,,,
,,,,,,,,,,,,,,,,,,,,,,,,,,,,,,,,,,,,,,,,,,,5fa948fdaab0ed07d3724eae,5ff3a3a5d1cd501d32523781,2021-01-05_00h27.33.548,Colour_Similarity_Experiment_v1,2020.1.2,Win32,60,5ff3a352adaa099f7659f8cc,34,5.934719953,53.41247958,356.0831972,35.60831972,160.2374387,space,12.29831,space,16.48862,space,62.74753,space,12.68143,space,18.86482,space,4.897695,4,FF,109.6000131,43.19996979,1,0,0,response1disk_5,7,6,16.640945,6.400011539,1.599993587,1,0,0,rectangle_8,6.400011539,1.599993587,1,0,0,1,6.400011539,1.599993587,1,0,0,0,0,0,5,1,,,,,,,,,,,,,,,,,,,,,,,,,,,,,,,,,,,,,,,,,,,,,,,,,,,,,,,,,,,,
,,,,,,,,,,,,,,,,,,,,,,,,,,,,,,,,,,,,,,,,,,,5fa948fdaab0ed07d3724eae,5ff3a3a5d1cd501d32523781,2021-01-05_00h27.33.548,Colour_Similarity_Experiment_v1,2020.1.2,Win32,60,5ff3a352adaa099f7659f8cc,,,,,,,,,,,,,,,,,,,8,PF,-42.39994036,86.39999485,1,0,0,response7disk_5,8,0,6.22661,-12.79998875,3.19999361,1,0,0,rectangle_8,-12.79998875,3.19999361,1,0,0,1,-12.79998875,3.19999361,1,0,0,0,1,1,4,1,,,,,,,,,,,,,,,,,,,,,,,,,,,,,,,,,,,,,,,,,,,,,,,,,,,,,,,,,,,,
,,,,,,,,,,,,,,,,,,,,,,,,,,,,,,,,,,,,,,,,,,,5fa948fdaab0ed07d3724eae,5ff3a3a5d1cd501d32523781,2021-01-05_00h27.33.548,Colour_Similarity_Experiment_v1,2020.1.2,Win32,60,5ff3a352adaa099f7659f8cc,,,,,,,,,,,,,,,,,,,6,PF,43.20001209,111.1999708,1,0,0,response1disk_5,1,7,5.29239,12.80001163,1.599993587,1,0,0,rectangle_8,12.80001163,1.599993587,1,0,0,1,12.80001163,1.599993587,1,0,0,0,2,2,1,1,,,,,,,,,,,,,,,,,,,,,,,,,,,,,,,,,,,,,,,,,,,,,,,,,,,,,,,,,,,,
,,,,,,,,,,,,,,,,,,,,,,,,,,,,,,,,,,,,,,,,,,,5fa948fdaab0ed07d3724eae,5ff3a3a5d1cd501d32523781,2021-01-05_00h27.33.548,Colour_Similarity_Experiment_v1,2020.1.2,Win32,60,5ff3a352adaa099f7659f8cc,,,,,,,,,,,,,,,,,,,8,PF,74.40001255,-58.40000731,1,0,0,response3disk_5,7,5,7.85802,3.200011492,3.999993622,1,0,0,rectangle_8,-95.19998997,46.39999425,1,0,0,1,4.000011504,-2.400006473,1,0,0,0,3,3,2,1,response7disk_7,1,rectangle_4,,,,,,,,,,,,,,,,,,,,,,,,,,,,,,,,,,,,,,,,,,,,,,,,,,,,,,,,,
,,,,,,,,,,,,,,,,,,,,,,,,,,,,,,,,,,,,,,,,,,,5fa948fdaab0ed07d3724eae,5ff3a3a5d1cd501d32523781,2021-01-05_00h27.33.548,Colour_Similarity_Experiment_v1,2020.1.2,Win32,60,5ff3a352adaa099f7659f8cc,,,,,,,,,,,,,,,,,,,7,PF,-30.39994018,-72.80000752,1,0,0,response5disk_5,9,3,1.935125,12.80001163,2.399993598,1,0,0,rectangle_8,12.80001163,2.399993598,1,0,0,1,12.80001163,2.399993598,1,0,0,0,4,4,6,1,,,,,,,,,,,,,,,,,,,,,,,,,,,,,,,,,,,,,,,,,,,,,,,,,,,,,,,,,,,,
,,,,,,,,,,,,,,,,,,,,,,,,,,,,,,,,,,,,,,,,,,,5fa948fdaab0ed07d3724eae,5ff3a3a5d1cd501d32523781,2021-01-05_00h27.33.548,Colour_Similarity_Experiment_v1,2020.1.2,Win32,60,5ff3a352adaa099f7659f8cc,,,,,,,,,,,,,,,,,,,9,FF,85.60001272,-32.00000691,1,0,0,response3disk_5,2,5,3.68605,-11.19998872,-4.000006497,1,0,0,rectangle_8,-71.99998963,42.39999419,1,0,0,1,-3.999988616,1.599993587,1,0,0,0,5,5,0,1,response7disk_7,1,rectangle_4,,,,,,,,,,,,,,,,,,,,,,,,,,,,,,,,,,,,,,,,,,,,,,,,,,,,,,,,,
,,,,,,,,,,,,,,,,,,,,,,,,,,,,,,,,,,,,,,,,,,,5fa948fdaab0ed07d3724eae,5ff3a3a5d1cd501d32523781,2021-01-05_00h27.33.548,Colour_Similarity_Experiment_v1,2020.1.2,Win32,60,5ff3a352adaa099f7659f8cc,,,,,,,,,,,,,,,,,,,7,FF,106.400013,37.59999412,1,0,0,response1disk_5,4,6,4.97416,-0.799988568,-0.800006449,1,0,0,rectangle_8,-0.799988568,-0.800006449,1,0,0,1,-0.799988568,-0.800006449,1,0,0,0,6,6,3,1,,,,,,,,,,,,,,,,,,,,,,,,,,,,,,,,,,,,,,,,,,,,,,,,,,,,,,,,,,,,
,,,,,,,,,,,,,,,,,,,,,,,,,,,,,,,,,,,,,,,,,,,5fa948fdaab0ed07d3724eae,5ff3a3a5d1cd501d32523781,2021-01-05_00h27.33.548,Colour_Similarity_Experiment_v1,2020.1.2,Win32,60,5ff3a352adaa099f7659f8cc,,,,,,,,,,,,,,,,,,,,FF,,,,,,,,5,6.577065,,,,,,,,,,,,,,,,,,,,,,,,,,space,1.434935,7,92.00001281,-49.60000718,1,0,0,response3disk,9,1,24.0000118,0.799993575,1,0,0,rectangle,24.0000118,0.799993575,1,0,0,,4,0,0.000795,24.0000118,0.799993575,1,0,0,0,0,0,155,1,,,,,,,,,,,,,,,,,,,,,
,,,,,,,,,,,,,,,,,,,,,,,,,,,,,,,,,,,,,,,,,,,5fa948fdaab0ed07d3724eae,5ff3a3a5d1cd501d32523781,2021-01-05_00h27.33.548,Colour_Similarity_Experiment_v1,2020.1.2,Win32,60,5ff3a352adaa099f7659f8cc,,,,,,,,,,,,,,,,,,,,FF,,,,,,,,5,7.95653,,,,,,,,,,,,,,,,,,,,,,,,,,,,2,81.60001266,-35.20000696,1,0,0,response3disk,5,2,17.60006053,2.399993598,1,0,0,rectangle,17.60006053,2.399993598,1,0,0,,1,0,0.000495,17.60006053,2.399993598,1,0,0,0,1,1,80,1,,,,,,,,,,,,,,,,,,,,,
,,,,,,,,,,,,,,,,,,,,,,,,,,,,,,,,,,,,,,,,,,,5fa948fdaab0ed07d3724eae,5ff3a3a5d1cd501d32523781,2021-01-05_00h27.33.548,Colour_Similarity_Experiment_v1,2020.1.2,Win32,60,5ff3a352adaa099f7659f8cc,,,,,,,,,,,,,,,,,,,,FF,,,,,,,,7,1.921685,,,,,,,,,,,,,,,,,,,,,,,,,,,,7,44.0000121,83.99999481,1,0,0,response1disk,2,3,-3.199988604,1.599993587,1,0,0,rectangle,-3.199988604,1.599993587,1,0,0,,3,0,0.00054,-3.199988604,1.599993587,1,0,0,0,2,2,138,1,,,,,,,,,,,,,,,,,,,,,
,,,,,,,,,,,,,,,,,,,,,,,,,,,,,,,,,,,,,,,,,,,5fa948fdaab0ed07d3724eae,5ff3a3a5d1cd501d32523781,2021-01-05_00h27.33.548,Colour_Similarity_Experiment_v1,2020.1.2,Win32,60,5ff3a352adaa099f7659f8cc,,,,,,,,,,,,,,,,,,,,FF,,,,,,,,0,1.58517,,,,,,,,,,,,,,,,,,,,,,,,,,,,1,-43.99998921,116.7999953,1,0,0,response7disk,1,4,-3.199988604,4.799993634,1,0,0,rectangle,-3.199988604,4.799993634,1,0,0,,7,0,0.00052,-3.199988604,4.799993634,1,0,0,0,3,3,151,1,,,,,,,,,,,,,,,,,,,,,
,,,,,,,,,,,,,,,,,,,,,,,,,,,,,,,,,,,,,,,,,,,5fa948fdaab0ed07d3724eae,5ff3a3a5d1cd501d32523781,2021-01-05_00h27.33.548,Colour_Similarity_Experiment_v1,2020.1.2,Win32,60,5ff3a352adaa099f7659f8cc,,,,,,,,,,,,,,,,,,,,PF,,,,,,,,4,2.548935,,,,,,,,,,,,,,,,,,,,,,,,,,,,6,47.20001215,-92.80000782,1,0,0,response3disk,5,5,14.40001166,0.799993575,1,0,0,rectangle,14.40001166,0.799993575,1,0,0,,4,0,0.000495,14.40001166,0.799993575,1,0,0,0,4,4,59,1,,,,,,,,,,,,,,,,,,,,,
,,,,,,,,,,,,,,,,,,,,,,,,,,,,,,,,,,,,,,,,,,,5fa948fdaab0ed07d3724eae,5ff3a3a5d1cd501d32523781,2021-01-05_00h27.33.548,Colour_Similarity_Experiment_v1,2020.1.2,Win32,60,5ff3a352adaa099f7659f8cc,,,,,,,,,,,,,,,,,,,,FF,,,,,,,,4,1.761125,,,,,,,,,,,,,,,,,,,,,,,,,,,,7,64.80001241,-105.6000568,1,0,0,response3disk,5,6,26.40001184,-6.400006533,1,0,0,rectangle,26.40001184,-6.400006533,1,0,0,,3,0,0.00061,26.40001184,-6.400006533,1,0,0,0,5,5,156,1,,,,,,,,,,,,,,,,,,,,,
,,,,,,,,,,,,,,,,,,,,,,,,,,,,,,,,,,,,,,,,,,,5fa948fdaab0ed07d3724eae,5ff3a3a5d1cd501d32523781,2021-01-05_00h27.33.548,Colour_Similarity_Experiment_v1,2020.1.2,Win32,60,5ff3a352adaa099f7659f8cc,,,,,,,,,,,,,,,,,,,,FF,,,,,,,,5,2.5687,,,,,,,,,,,,,,,,,,,,,,,,,,,,3,90.40001279,-28.80000687,1,0,0,response3disk,7,7,20.00001174,1.599993587,1,0,0,rectangle,20.00001174,1.599993587,1,0,0,,4,0,0.00046,20.00001174,1.599993587,1,0,0,0,6,6,118,1,,,,,,,,,,,,,,,,,,,,,
,,,,,,,,,,,,,,,,,,,,,,,,,,,,,,,,,,,,,,,,,,,5fa948fdaab0ed07d3724eae,5ff3a3a5d1cd501d32523781,2021-01-05_00h27.33.548,Colour_Similarity_Experiment_v1,2020.1.2,Win32,60,5ff3a352adaa099f7659f8cc,,,,,,,,,,,,,,,,,,,,PF,,,,,,,,0,1.27382,,,,,,,,,,,,,,,,,,,,,,,,,,,,1,-39.19998914,113.5999953,1,0,0,response7disk,1,8,4.800011516,8.799993694,1,0,0,rectangle,51.20001221,99.19997063,1,0,0,7,7,1,3.86221,5.600060356,-3.200006485,1,0,0,0,7,7,76,1,response1disk_3,rectangle,,,,,,,,,,,,,,,,,,,
,,,,,,,,,,,,,,,,,,,,,,,,,,,,,,,,,,,,,,,,,,,5fa948fdaab0ed07d3724eae,5ff3a3a5d1cd501d32523781,2021-01-05_00h27.33.548,Colour_Similarity_Experiment_v1,2020.1.2,Win32,60,5ff3a352adaa099f7659f8cc,,,,,,,,,,,,,,,,,,,,FF,,,,,,,,0,1.603815,,,,,,,,,,,,,,,,,,,,,,,,,,,,6,-39.99998915,97.59999502,1,0,0,response7disk,6,9,1.600060296,-1.600006461,1,0,0,rectangle,1.600060296,-1.600006461,1,0,0,7,1,0,0.000475,1.600060296,-1.600006461,1,0,0,0,8,8,91,1,,,,,,,,,,,,,,,,,,,,,
,,,,,,,,,,,,,,,,,,,,,,,,,,,,,,,,,,,,,,,,,,,5fa948fdaab0ed07d3724eae,5ff3a3a5d1cd501d32523781,2021-01-05_00h27.33.548,Colour_Similarity_Experiment_v1,2020.1.2,Win32,60,5ff3a352adaa099f7659f8cc,,,,,,,,,,,,,,,,,,,,PF,,,,,,,,3,41.801805,,,,,,,,,,,,,,,,,,,,,,,,,,,,5,-48.79998928,-98.4000079,1,0,0,response5disk,4,10,-2.399939764,-6.4373E-06,1,0,0,rectangle,-2.399939764,-6.4373E-06,1,0,0,7,0,0,0.000495,-2.399939764,-6.4373E-06,1,0,0,0,9,9,54,1,,,,,,,,,,,,,,,,,,,,,
,,,,,,,,,,,,,,,,,,,,,,,,,,,,,,,,,,,,,,,,,,,5fa948fdaab0ed07d3724eae,5ff3a3a5d1cd501d32523781,2021-01-05_00h27.33.548,Colour_Similarity_Experiment_v1,2020.1.2,Win32,60,5ff3a352adaa099f7659f8cc,,,,,,,,,,,,,,,,,,,,PF,,,,,,,,4,1.920965,,,,,,,,,,,,,,,,,,,,,,,,,,,,2,54.40001225,-89.6000566,1,0,0,response3disk,9,11,10.4000116,-3.200006485,1,0,0,rectangle,10.4000116,-3.200006485,1,0,0,7,2,0,0.000465,10.4000116,-3.200006485,1,0,0,0,10,10,39,1,,,,,,,,,,,,,,,,,,,,,
,,,,,,,,,,,,,,,,,,,,,,,,,,,,,,,,,,,,,,,,,,,5fa948fdaab0ed07d3724eae,5ff3a3a5d1cd501d32523781,2021-01-05_00h27.33.548,Colour_Similarity_Experiment_v1,2020.1.2,Win32,60,5ff3a352adaa099f7659f8cc,,,,,,,,,,,,,,,,,,,,FF,,,,,,,,6,1.598755,,,,,,,,,,,,,,,,,,,,,,,,,,,,3,87.20001274,33.59999406,1,0,0,response1disk,1,12,11.20001161,0.799993575,1,0,0,rectangle,11.20001161,0.799993575,1,0,0,7,6,0,0.0005,11.20001161,0.799993575,1,0,0,0,11,11,125,1,,,,,,,,,,,,,,,,,,,,,
,,,,,,,,,,,,,,,,,,,,,,,,,,,,,,,,,,,,,,,,,,,5fa948fdaab0ed07d3724eae,5ff3a3a5d1cd501d32523781,2021-01-05_00h27.33.548,Colour_Similarity_Experiment_v1,2020.1.2,Win32,60,5ff3a352adaa099f7659f8cc,,,,,,,,,,,,,,,,,,,,FF,,,,,,,,5,1.91326,,,,,,,,,,,,,,,,,,,,,,,,,,,,4,68.00001246,-44.8000071,1,0,0,response3disk,2,13,3.200011492,6.399993658,1,0,0,rectangle,3.200011492,6.399993658,1,0,0,7,6,0,0.00048,3.200011492,6.399993658,1,0,0,0,12,12,13,1,,,,,,,,,,,,,,,,,,,,,
,,,,,,,,,,,,,,,,,,,,,,,,,,,,,,,,,,,,,,,,,,,5fa948fdaab0ed07d3724eae,5ff3a3a5d1cd501d32523781,2021-01-05_00h27.33.548,Colour_Similarity_Experiment_v1,2020.1.2,Win32,60,5ff3a352adaa099f7659f8cc,,,,,,,,,,,,,,,,,,,,PF,,,,,,,,1,2.235415,,,,,,,,,,,,,,,,,,,,,,,,,,,,2,-75.99998969,32.79999405,1,0,0,response7disk,1,14,1.600060296,-6.400006533,1,0,0,rectangle,1.600060296,-6.400006533,1,0,0,7,6,0,0.00051,1.600060296,-6.400006533,1,0,0,0,13,13,9,1,,,,,,,,,,,,,,,,,,,,,
,,,,,,,,,,,,,,,,,,,,,,,,,,,,,,,,,,,,,,,,,,,5fa948fdaab0ed07d3724eae,5ff3a3a5d1cd501d32523781,2021-01-05_00h27.33.548,Colour_Similarity_Experiment_v1,2020.1.2,Win32,60,5ff3a352adaa099f7659f8cc,,,,,,,,,,,,,,,,,,,,FF,,,,,,,,4,1.907405,,,,,,,,,,,,,,,,,,,,,,,,,,,,9,56.00001228,-102.400008,1,0,0,response3disk,6,15,6.400011539,-1.600006461,1,0,0,rectangle,6.400011539,-1.600006461,1,0,0,7,3,0,0.000515,6.400011539,-1.600006461,1,0,0,0,14,14,117,1,,,,,,,,,,,,,,,,,,,,,
,,,,,,,,,,,,,,,,,,,,,,,,,,,,,,,,,,,,,,,,,,,5fa948fdaab0ed07d3724eae,5ff3a3a5d1cd501d32523781,2021-01-05_00h27.33.548,Colour_Similarity_Experiment_v1,2020.1.2,Win32,60,5ff3a352adaa099f7659f8cc,,,,,,,,,,,,,,,,,,,,FF,,,,,,,,4,1.59283,,,,,,,,,,,,,,,,,,,,,,,,,,,,5,46.40001214,-88.80000776,1,0,0,response3disk,2,16,8.800011575,-4.000006497,1,0,0,rectangle,-81.59998977,-40.00000703,1,0,0,7,2,1,2.423255,4.800011516,-7.200006545,1,0,0,0,15,15,55,1,response5disk_3,rectangle,,,,,,,,,,,,,,,,,,,
,,,,,,,,,,,,,,,,,,,,,,,,,,,,,,,,,,,,,,,,,,,5fa948fdaab0ed07d3724eae,5ff3a3a5d1cd501d32523781,2021-01-05_00h27.33.548,Colour_Similarity_Experiment_v1,2020.1.2,Win32,60,5ff3a352adaa099f7659f8cc,,,,,,,,,,,,,,,,,,,,FF,,,,,,,,5,1.913375,,,,,,,,,,,,,,,,,,,,,,,,,,,,4,70.40001249,-46.40000713,1,0,0,response3disk,6,17,-3.199988604,5.599993646,1,0,0,rectangle,-3.199988604,5.599993646,1,0,0,7,3,0,0.000475,-3.199988604,5.599993646,1,0,0,0,16,16,122,1,,,,,,,,,,,,,,,,,,,,,
,,,,,,,,,,,,,,,,,,,,,,,,,,,,,,,,,,,,,,,,,,,5fa948fdaab0ed07d3724eae,5ff3a3a5d1cd501d32523781,2021-01-05_00h27.33.548,Colour_Similarity_Experiment_v1,2020.1.2,Win32,60,5ff3a352adaa099f7659f8cc,,,,,,,,,,,,,,,,,,,,PF,,,,,,,,1,1.906695,,,,,,,,,,,,,,,,,,,,,,,,,,,,3,-78.3999409,47.99999428,1,0,0,response7disk,4,18,-7.999988675,-5.600006521,1,0,0,rectangle,-7.999988675,-5.600006521,1,0,0,7,2,0,0.0005,-7.999988675,-5.600006521,1,0,0,0,17,17,30,1,,,,,,,,,,,,,,,,,,,,,
,,,,,,,,,,,,,,,,,,,,,,,,,,,,,,,,,,,,,,,,,,,5fa948fdaab0ed07d3724eae,5ff3a3a5d1cd501d32523781,2021-01-05_00h27.33.548,Colour_Similarity_Experiment_v1,2020.1.2,Win32,60,5ff3a352adaa099f7659f8cc,,,,,,,,,,,,,,,,,,,,FF,,,,,,,,4,12.440465,,,,,,,,,,,,,,,,,,,,,,,,,,,,1,53.60001224,-74.40000755,1,0,0,response3disk,7,19,8.800011575,-4.800006509,1,0,0,rectangle,8.800011575,-4.800006509,1,0,0,7,0,0,0.00061,8.800011575,-4.800006509,1,0,0,0,18,18,137,1,,,,,,,,,,,,,,,,,,,,,
,,,,,,,,,,,,,,,,,,,,,,,,,,,,,,,,,,,,,,,,,,,5fa948fdaab0ed07d3724eae,5ff3a3a5d1cd501d32523781,2021-01-05_00h27.33.548,Colour_Similarity_Experiment_v1,2020.1.2,Win32,60,5ff3a352adaa099f7659f8cc,,,,,,,,,,,,,,,,,,,,FF,,,,,,,,3,2.23303,,,,,,,,,,,,,,,,,,,,,,,,,,,,6,-59.19998944,-84.8000077,1,0,0,response5disk,8,20,-6.399939823,-10.40000659,1,0,0,rectangle,-6.399939823,-10.40000659,1,0,0,7,5,0,0.000505,-6.399939823,-10.40000659,1,0,0,0,19,19,133,1,,,,,,,,,,,,,,,,,,,,,
,,,,,,,,,,,,,,,,,,,,,,,,,,,,,,,,,,,,,,,,,,,5fa948fdaab0ed07d3724eae,5ff3a3a5d1cd501d32523781,2021-01-05_00h27.33.548,Colour_Similarity_Experiment_v1,2020.1.2,Win32,60,5ff3a352adaa099f7659f8cc,,,,,,,,,,,,,,,,,,,,PF,,,,,,,,6,1.58964,,,,,,,,,,,,,,,,,,,,,,,,,,,,1,94.40001285,37.59999412,1,0,0,response1disk,3,21,20.00001174,-6.4373E-06,1,0,0,rectangle,20.00001174,-6.4373E-06,1,0,0,7,1,0,0.00072,20.00001174,-6.4373E-06,1,0,0,0,20,20,1,1,,,,,,,,,,,,,,,,,,,,,
,,,,,,,,,,,,,,,,,,,,,,,,,,,,,,,,,,,,,,,,,,,5fa948fdaab0ed07d3724eae,5ff3a3a5d1cd501d32523781,2021-01-05_00h27.33.548,Colour_Similarity_Experiment_v1,2020.1.2,Win32,60,5ff3a352adaa099f7659f8cc,,,,,,,,,,,,,,,,,,,,FF,,,,,,,,5,1.669195,,,,,,,,,,,,,,,,,,,,,,,,,,,,6,86.40001273,-64.8000074,1,0,0,response3disk,4,22,1.600060296,1.599993587,1,0,0,rectangle,1.600060296,1.599993587,1,0,0,7,3,0,0.000525,1.600060296,1.599993587,1,0,0,0,21,21,56,1,,,,,,,,,,,,,,,,,,,,,
,,,,,,,,,,,,,,,,,,,,,,,,,,,,,,,,,,,,,,,,,,,5fa948fdaab0ed07d3724eae,5ff3a3a5d1cd501d32523781,2021-01-05_00h27.33.548,Colour_Similarity_Experiment_v1,2020.1.2,Win32,60,5ff3a352adaa099f7659f8cc,,,,,,,,,,,,,,,,,,,,PF,,,,,,,,2,3.72442,,,,,,,,,,,,,,,,,,,,,,,,,,,,4,-82.39994096,-28.00000685,1,0,0,response5disk,5,23,-6.399939823,0.799993575,1,0,0,rectangle,-6.399939823,0.799993575,1,0,0,7,5,0,0.00056,-6.399939823,0.799993575,1,0,0,0,22,22,49,1,,,,,,,,,,,,,,,,,,,,,
,,,,,,,,,,,,,,,,,,,,,,,,,,,,,,,,,,,,,,,,,,,5fa948fdaab0ed07d3724eae,5ff3a3a5d1cd501d32523781,2021-01-05_00h27.33.548,Colour_Similarity_Experiment_v1,2020.1.2,Win32,60,5ff3a352adaa099f7659f8cc,,,,,,,,,,,,,,,,,,,,PF,,,,,,,,4,1.75328,,,,,,,,,,,,,,,,,,,,,,,,,,,,2,40.00001204,-95.20000786,1,0,0,response3disk,3,24,-1.59998858,-3.200006485,1,0,0,rectangle,-1.59998858,-3.200006485,1,0,0,7,4,0,0.000495,-1.59998858,-3.200006485,1,0,0,0,23,23,69,1,,,,,,,,,,,,,,,,,,,,,
,,,,,,,,,,,,,,,,,,,,,,,,,,,,,,,,,,,,,,,,,,,5fa948fdaab0ed07d3724eae,5ff3a3a5d1cd501d32523781,2021-01-05_00h27.33.548,Colour_Similarity_Experiment_v1,2020.1.2,Win32,60,5ff3a352adaa099f7659f8cc,,,,,,,,,,,,,,,,,,,,PF,,,,,,,,7,1.290295,,,,,,,,,,,,,,,,,,,,,,,,,,,,2,56.80001229,106.3999951,1,0,0,response1disk,7,25,4.000011504,3.999993622,1,0,0,rectangle,4.000011504,3.999993622,1,0,0,7,7,0,0.000585,4.000011504,3.999993622,1,0,0,0,24,24,107,1,,,,,,,,,,,,,,,,,,,,,
,,,,,,,,,,,,,,,,,,,,,,,,,,,,,,,,,,,,,,,,,,,5fa948fdaab0ed07d3724eae,5ff3a3a5d1cd501d32523781,2021-01-05_00h27.33.548,Colour_Similarity_Experiment_v1,2020.1.2,Win32,60,5ff3a352adaa099f7659f8cc,,,,,,,,,,,,,,,,,,,,PF,,,,,,,,6,1.65132,,,,,,,,,,,,,,,,,,,,,,,,,,,,8,91.2000128,29.599994,1,0,0,response1disk,6,26,3.200011492,0.799993575,1,0,0,rectangle,-72.79998964,-48.00000715,1,0,0,7,2,1,1.76521,16.00001168,-6.4373E-06,1,0,0,0,25,25,161,1,response5disk_3,rectangle,,,,,,,,,,,,,,,,,,,
,,,,,,,,,,,,,,,,,,,,,,,,,,,,,,,,,,,,,,,,,,,5fa948fdaab0ed07d3724eae,5ff3a3a5d1cd501d32523781,2021-01-05_00h27.33.548,Colour_Similarity_Experiment_v1,2020.1.2,Win32,60,5ff3a352adaa099f7659f8cc,,,,,,,,,,,,,,,,,,,,PF,,,,,,,,1,1.298615,,,,,,,,,,,,,,,,,,,,,,,,,,,,4,-97.59999001,56.79999441,1,0,0,response7disk,3,27,15.20001167,3.19999361,1,0,0,rectangle,15.20001167,3.19999361,1,0,0,7,6,0,0.00048,15.20001167,3.19999361,1,0,0,0,26,26,89,1,,,,,,,,,,,,,,,,,,,,,
,,,,,,,,,,,,,,,,,,,,,,,,,,,,,,,,,,,,,,,,,,,5fa948fdaab0ed07d3724eae,5ff3a3a5d1cd501d32523781,2021-01-05_00h27.33.548,Colour_Similarity_Experiment_v1,2020.1.2,Win32,60,5ff3a352adaa099f7659f8cc,,,,,,,,,,,,,,,,,,,,PF,,,,,,,,1,1.271935,,,,,,,,,,,,,,,,,,,,,,,,,,,,5,-91.19998991,27.99999398,1,0,0,response7disk,3,28,-5.599988639,-7.200006545,1,0,0,rectangle,-5.599988639,-7.200006545,1,0,0,7,0,0,0.00054,-5.599988639,-7.200006545,1,0,0,0,27,27,109,1,,,,,,,,,,,,,,,,,,,,,
,,,,,,,,,,,,,,,,,,,,,,,,,,,,,,,,,,,,,,,,,,,5fa948fdaab0ed07d3724eae,5ff3a3a5d1cd501d32523781,2021-01-05_00h27.33.548,Colour_Similarity_Experiment_v1,2020.1.2,Win32,60,5ff3a352adaa099f7659f8cc,,,,,,,,,,,,,,,,,,,,PF,,,,,,,,6,1.44638,,,,,,,,,,,,,,,,,,,,,,,,,,,,5,109.6000131,38.39999413,1,0,0,response1disk,2,29,1.14441E-05,11.19999373,1,0,0,rectangle,1.14441E-05,11.19999373,1,0,0,7,0,0,0.000715,1.14441E-05,11.19999373,1,0,0,0,28,28,129,1,,,,,,,,,,,,,,,,,,,,,
,,,,,,,,,,,,,,,,,,,,,,,,,,,,,,,,,,,,,,,,,,,5fa948fdaab0ed07d3724eae,5ff3a3a5d1cd501d32523781,2021-01-05_00h27.33.548,Colour_Similarity_Experiment_v1,2020.1.2,Win32,60,5ff3a352adaa099f7659f8cc,,,,,,,,,,,,,,,,,,,,PF,,,,,,,,1,1.593955,,,,,,,,,,,,,,,,,,,,,,,,,,,,8,-77.59998971,43.99999422,1,0,0,response7disk,8,30,3.200011492,-6.400006533,1,0,0,rectangle,3.200011492,-6.400006533,1,0,0,7,3,0,0.0005,3.200011492,-6.400006533,1,0,0,0,29,29,153,1,,,,,,,,,,,,,,,,,,,,,
,,,,,,,,,,,,,,,,,,,,,,,,,,,,,,,,,,,,,,,,,,,5fa948fdaab0ed07d3724eae,5ff3a3a5d1cd501d32523781,2021-01-05_00h27.33.548,Colour_Similarity_Experiment_v1,2020.1.2,Win32,60,5ff3a352adaa099f7659f8cc,,,,,,,,,,,,,,,,,,,,FF,,,,,,,,3,4.0098,,,,,,,,,,,,,,,,,,,,,,,,,,,,8,-54.39994054,-75.20000756,1,0,0,response5disk,7,31,0.800011456,-7.200006545,1,0,0,rectangle,0.800011456,-7.200006545,1,0,0,7,7,0,0.000485,0.800011456,-7.200006545,1,0,0,0,30,30,86,1,,,,,,,,,,,,,,,,,,,,,
,,,,,,,,,,,,,,,,,,,,,,,,,,,,,,,,,,,,,,,,,,,5fa948fdaab0ed07d3724eae,5ff3a3a5d1cd501d32523781,2021-01-05_00h27.33.548,Colour_Similarity_Experiment_v1,2020.1.2,Win32,60,5ff3a352adaa099f7659f8cc,,,,,,,,,,,,,,,,,,,,FF,,,,,,,,4,1.249625,,,,,,,,,,,,,,,,,,,,,,,,,,,,2,45.60006095,-76.00000757,1,0,0,response3disk,9,32,0.800011456,-4.800006509,1,0,0,rectangle,0.800011456,-4.800006509,1,0,0,7,7,0,0.00047,0.800011456,-4.800006509,1,0,0,0,31,31,72,1,,,,,,,,,,,,,,,,,,,,,
,,,,,,,,,,,,,,,,,,,,,,,,,,,,,,,,,,,,,,,,,,,5fa948fdaab0ed07d3724eae,5ff3a3a5d1cd501d32523781,2021-01-05_00h27.33.548,Colour_Similarity_Experiment_v1,2020.1.2,Win32,60,5ff3a352adaa099f7659f8cc,,,,,,,,,,,,,,,,,,,,FF,,,,,,,,5,1.275815,,,,,,,,,,,,,,,,,,,,,,,,,,,,5,72.00001252,-51.2000072,1,0,0,response3disk,6,33,-1.59998858,-4.000006497,1,0,0,rectangle,-1.59998858,-4.000006497,1,0,0,7,6,0,0.000495,-1.59998858,-4.000006497,1,0,0,0,32,32,12,1,,,,,,,,,,,,,,,,,,,,,
,,,,,,,,,,,,,,,,,,,,,,,,,,,,,,,,,,,,,,,,,,,5fa948fdaab0ed07d3724eae,5ff3a3a5d1cd501d32523781,2021-01-05_00h27.33.548,Colour_Similarity_Experiment_v1,2020.1.2,Win32,60,5ff3a352adaa099f7659f8cc,,,,,,,,,,,,,,,,,,,,PF,,,,,,,,5,1.448445,,,,,,,,,,,,,,,,,,,,,,,,,,,,3,93.60001284,-46.40000713,1,0,0,response3disk,6,34,-0.799988568,-3.200006485,1,0,0,rectangle,-0.799988568,-3.200006485,1,0,0,7,0,0,0.000505,-0.799988568,-3.200006485,1,0,0,0,33,33,47,1,,,,,,,,,,,,,,,,,,,,,
,,,,,,,,,,,,,,,,,,,,,,,,,,,,,,,,,,,,,,,,,,,5fa948fdaab0ed07d3724eae,5ff3a3a5d1cd501d32523781,2021-01-05_00h27.33.548,Colour_Similarity_Experiment_v1,2020.1.2,Win32,60,5ff3a352adaa099f7659f8cc,,,,,,,,,,,,,,,,,,,,FF,,,,,,,,5,1.2586,,,,,,,,,,,,,,,,,,,,,,,,,,,,6,67.20001245,-24.00000679,1,0,0,response3disk,3,35,-16.79998881,8.799993694,1,0,0,rectangle,-16.79998881,8.799993694,1,0,0,7,7,0,0.000655,-16.79998881,8.799993694,1,0,0,0,34,34,21,1,,,,,,,,,,,,,,,,,,,,,
,,,,,,,,,,,,,,,,,,,,,,,,,,,,,,,,,,,,,,,,,,,5fa948fdaab0ed07d3724eae,5ff3a3a5d1cd501d32523781,2021-01-05_00h27.33.548,Colour_Similarity_Experiment_v1,2020.1.2,Win32,60,5ff3a352adaa099f7659f8cc,,,,,,,,,,,,,,,,,,,,PF,,,,,,,,5,1.879605,,,,,,,,,,,,,,,,,,,,,,,,,,,,4,89.60001278,-33.60000694,1,0,0,response3disk,6,36,-15.99998879,9.599993706,1,0,0,rectangle,-15.99998879,9.599993706,1,0,0,7,0,0,0.00048,-15.99998879,9.599993706,1,0,0,0,35,35,120,1,,,,,,,,,,,,,,,,,,,,,
,,,,,,,,,,,,,,,,,,,,,,,,,,,,,,,,,,,,,,,,,,,5fa948fdaab0ed07d3724eae,5ff3a3a5d1cd501d32523781,2021-01-05_00h27.33.548,Colour_Similarity_Experiment_v1,2020.1.2,Win32,60,5ff3a352adaa099f7659f8cc,,,,,,,,,,,,,,,,,,,,FF,,,,,,,,7,2.11984,,,,,,,,,,,,,,,,,,,,,,,,,,,,4,67.20001245,74.39999467,1,0,0,response1disk,8,37,-3.199988604,-8.800006568,1,0,0,rectangle,-3.199988604,-8.800006568,1,0,0,7,0,0,0.00051,-3.199988604,-8.800006568,1,0,0,0,36,36,35,1,,,,,,,,,,,,,,,,,,,,,
,,,,,,,,,,,,,,,,,,,,,,,,,,,,,,,,,,,,,,,,,,,5fa948fdaab0ed07d3724eae,5ff3a3a5d1cd501d32523781,2021-01-05_00h27.33.548,Colour_Similarity_Experiment_v1,2020.1.2,Win32,60,5ff3a352adaa099f7659f8cc,,,,,,,,,,,,,,,,,,,,PF,,,,,,,,6,1.922745,,,,,,,,,,,,,,,,,,,,,,,,,,,,9,88.00001276,50.39999431,1,0,0,response1disk,7,38,25.60006065,0.799993575,1,0,0,rectangle,25.60006065,0.799993575,1,0,0,7,0,0,0.001295,25.60006065,0.799993575,1,0,0,0,37,37,121,1,,,,,,,,,,,,,,,,,,,,,
,,,,,,,,,,,,,,,,,,,,,,,,,,,,,,,,,,,,,,,,,,,5fa948fdaab0ed07d3724eae,5ff3a3a5d1cd501d32523781,2021-01-05_00h27.33.548,Colour_Similarity_Experiment_v1,2020.1.2,Win32,60,5ff3a352adaa099f7659f8cc,,,,,,,,,,,,,,,,,,,,PF,,,,,,,,5,1.60509,,,,,,,,,,,,,,,,,,,,,,,,,,,,5,101.600013,-36.00000697,1,0,0,response3disk,6,39,8.000011563,6.399993658,1,0,0,rectangle,8.000011563,6.399993658,1,0,0,7,2,0,0.000535,8.000011563,6.399993658,1,0,0,0,38,38,103,1,,,,,,,,,,,,,,,,,,,,,
,,,,,,,,,,,,,,,,,,,,,,,,,,,,,,,,,,,,,,,,,,,5fa948fdaab0ed07d3724eae,5ff3a3a5d1cd501d32523781,2021-01-05_00h27.33.548,Colour_Similarity_Experiment_v1,2020.1.2,Win32,60,5ff3a352adaa099f7659f8cc,,,,,,,,,,,,,,,,,,,,PF,,,,,,,,5,1.43702,,,,,,,,,,,,,,,,,,,,,,,,,,,,8,96.80001289,-35.20000696,1,0,0,response3disk,7,40,-14.39993994,2.399993598,1,0,0,rectangle,-14.39993994,2.399993598,1,0,0,7,6,0,0.00062,-14.39993994,2.399993598,1,0,0,0,39,39,23,1,,,,,,,,,,,,,,,,,,,,,
,,,,,,,,,,,,,,,,,,,,,,,,,,,,,,,,,,,,,,,,,,,5fa948fdaab0ed07d3724eae,5ff3a3a5d1cd501d32523781,2021-01-05_00h27.33.548,Colour_Similarity_Experiment_v1,2020.1.2,Win32,60,5ff3a352adaa099f7659f8cc,,,,,,,,,,,,,,,,,,,,PF,,,,,,,,6,1.269205,,,,,,,,,,,,,,,,,,,,,,,,,,,,9,108.0000131,43.99999422,1,0,0,response1disk,4,41,20.00001174,1.599993587,1,0,0,rectangle,20.00001174,1.599993587,1,0,0,7,3,0,0.000485,20.00001174,1.599993587,1,0,0,0,40,40,114,1,,,,,,,,,,,,,,,,,,,,,
,,,,,,,,,,,,,,,,,,,,,,,,,,,,,,,,,,,,,,,,,,,5fa948fdaab0ed07d3724eae,5ff3a3a5d1cd501d32523781,2021-01-05_00h27.33.548,Colour_Similarity_Experiment_v1,2020.1.2,Win32,60,5ff3a352adaa099f7659f8cc,,,,,,,,,,,,,,,,,,,,FF,,,,,,,,0,2.86503,,,,,,,,,,,,,,,,,,,,,,,,,,,,8,-40.79998916,99.19997063,1,0,0,response7disk,8,42,-6.399939823,-4.000006497,1,0,0,rectangle,-6.399939823,-4.000006497,1,0,0,7,3,0,0.000455,-6.399939823,-4.000006497,1,0,0,0,41,41,48,1,,,,,,,,,,,,,,,,,,,,,
,,,,,,,,,,,,,,,,,,,,,,,,,,,,,,,,,,,,,,,,,,,5fa948fdaab0ed07d3724eae,5ff3a3a5d1cd501d32523781,2021-01-05_00h27.33.548,Colour_Similarity_Experiment_v1,2020.1.2,Win32,60,5ff3a352adaa099f7659f8cc,,,,,,,,,,,,,,,,,,,,PF,,,,,,,,1,1.65532,,,,,,,,,,,,,,,,,,,,,,,,,,,,9,-80.79998976,43.99999422,1,0,0,response7disk,8,43,5.600060356,-1.600006461,1,0,0,rectangle,5.600060356,-1.600006461,1,0,0,7,1,0,0.0005,5.600060356,-1.600006461,1,0,0,0,42,42,67,1,,,,,,,,,,,,,,,,,,,,,
,,,,,,,,,,,,,,,,,,,,,,,,,,,,,,,,,,,,,,,,,,,5fa948fdaab0ed07d3724eae,5ff3a3a5d1cd501d32523781,2021-01-05_00h27.33.548,Colour_Similarity_Experiment_v1,2020.1.2,Win32,60,5ff3a352adaa099f7659f8cc,,,,,,,,,,,,,,,,,,,,PF,,,,,,,,5,1.456395,,,,,,,,,,,,,,,,,,,,,,,,,,,,4,83.20001268,-48.80000716,1,0,0,response3disk,2,44,-7.999988675,-3.200006485,1,0,0,rectangle,-7.999988675,-3.200006485,1,0,0,7,1,0,0.000485,-7.999988675,-3.200006485,1,0,0,0,43,43,108,1,,,,,,,,,,,,,,,,,,,,,
,,,,,,,,,,,,,,,,,,,,,,,,,,,,,,,,,,,,,,,,,,,5fa948fdaab0ed07d3724eae,5ff3a3a5d1cd501d32523781,2021-01-05_00h27.33.548,Colour_Similarity_Experiment_v1,2020.1.2,Win32,60,5ff3a352adaa099f7659f8cc,,,,,,,,,,,,,,,,,,,,PF,,,,,,,,7,1.909485,,,,,,,,,,,,,,,,,,,,,,,,,,,,9,26.40001184,114.3999953,1,0,0,response1disk,5,45,8.800011575,-8.800006568,1,0,0,rectangle,8.800011575,-8.800006568,1,0,0,7,3,0,0.00049,8.800011575,-8.800006568,1,0,0,0,44,44,134,1,,,,,,,,,,,,,,,,,,,,,
,,,,,,,,,,,,,,,,,,,,,,,,,,,,,,,,,,,,,,,,,,,5fa948fdaab0ed07d3724eae,5ff3a3a5d1cd501d32523781,2021-01-05_00h27.33.548,Colour_Similarity_Experiment_v1,2020.1.2,Win32,60,5ff3a352adaa099f7659f8cc,,,,,,,,,,,,,,,,,,,,FF,,,,,,,,7,1.44668,,,,,,,,,,,,,,,,,,,,,,,,,,,,8,50.4000122,90.39999491,1,0,0,response1disk,3,46,3.200011492,-2.400006473,1,0,0,rectangle,3.200011492,-2.400006473,1,0,0,7,4,0,0.000525,3.200011492,-2.400006473,1,0,0,0,45,45,154,1,,,,,,,,,,,,,,,,,,,,,
,,,,,,,,,,,,,,,,,,,,,,,,,,,,,,,,,,,,,,,,,,,5fa948fdaab0ed07d3724eae,5ff3a3a5d1cd501d32523781,2021-01-05_00h27.33.548,Colour_Similarity_Experiment_v1,2020.1.2,Win32,60,5ff3a352adaa099f7659f8cc,,,,,,,,,,,,,,,,,,,,PF,,,,,,,,7,1.268245,,,,,,,,,,,,,,,,,,,,,,,,,,,,6,45.60006095,99.99999505,1,0,0,response1disk,1,47,3.200011492,0.799993575,1,0,0,rectangle,3.200011492,0.799993575,1,0,0,7,3,0,0.00046,3.200011492,0.799993575,1,0,0,0,46,46,46,1,,,,,,,,,,,,,,,,,,,,,
,,,,,,,,,,,,,,,,,,,,,,,,,,,,,,,,,,,,,,,,,,,5fa948fdaab0ed07d3724eae,5ff3a3a5d1cd501d32523781,2021-01-05_00h27.33.548,Colour_Similarity_Experiment_v1,2020.1.2,Win32,60,5ff3a352adaa099f7659f8cc,,,,,,,,,,,,,,,,,,,,FF,,,,,,,,6,2.251145,,,,,,,,,,,,,,,,,,,,,,,,,,,,1,96.00001287,40.79999417,1,0,0,response1disk,4,48,-4.799988627,-0.800006449,1,0,0,rectangle,-4.799988627,-0.800006449,1,0,0,7,1,0,0.000465,-4.799988627,-0.800006449,1,0,0,0,47,47,135,1,,,,,,,,,,,,,,,,,,,,,
,,,,,,,,,,,,,,,,,,,,,,,,,,,,,,,,,,,,,,,,,,,5fa948fdaab0ed07d3724eae,5ff3a3a5d1cd501d32523781,2021-01-05_00h27.33.548,Colour_Similarity_Experiment_v1,2020.1.2,Win32,60,5ff3a352adaa099f7659f8cc,,,,,,,,,,,,,,,,,,,,FF,,,,,,,,0,0.937685,,,,,,,,,,,,,,,,,,,,,,,,,,,,4,-44.79998922,112.7999952,1,0,0,response7disk,4,49,-9.599988699,2.399993598,1,0,0,rectangle,-9.599988699,2.399993598,1,0,0,7,1,0,0.00048,-9.599988699,2.399993598,1,0,0,0,48,48,84,1,,,,,,,,,,,,,,,,,,,,,
,,,,,,,,,,,,,,,,,,,,,,,,,,,,,,,,,,,,,,,,,,,5fa948fdaab0ed07d3724eae,5ff3a3a5d1cd501d32523781,2021-01-05_00h27.33.548,Colour_Similarity_Experiment_v1,2020.1.2,Win32,60,5ff3a352adaa099f7659f8cc,,,,,,,,,,,,,,,,,,,,FF,,,,,,,,3,2.886945,,,,,,,,,,,,,,,,,,,,,,,,,,,,9,-45.59998924,-78.40000761,1,0,0,response5disk,1,50,4.000011504,-2.400006473,1,0,0,rectangle,4.000011504,-2.400006473,1,0,0,7,7,0,0.00048,4.000011504,-2.400006473,1,0,0,0,49,49,111,1,,,,,,,,,,,,,,,,,,,,,
,,,,,,,,,,,,,,,,,,,,,,,,,,,,,,,,,,,,,,,,,,,5fa948fdaab0ed07d3724eae,5ff3a3a5d1cd501d32523781,2021-01-05_00h27.33.548,Colour_Similarity_Experiment_v1,2020.1.2,Win32,60,5ff3a352adaa099f7659f8cc,,,,,,,,,,,,,,,,,,,,FF,,,,,,,,6,1.945315,,,,,,,,,,,,,,,,,,,,,,,,,,,,2,105.600013,55.9999944,1,0,0,response1disk,4,51,19.20001173,5.599993646,1,0,0,rectangle,19.20001173,5.599993646,1,0,0,7,0,0,0.00054,19.20001173,5.599993646,1,0,0,0,50,50,145,1,,,,,,,,,,,,,,,,,,,,,
,,,,,,,,,,,,,,,,,,,,,,,,,,,,,,,,,,,,,,,,,,,5fa948fdaab0ed07d3724eae,5ff3a3a5d1cd501d32523781,2021-01-05_00h27.33.548,Colour_Similarity_Experiment_v1,2020.1.2,Win32,60,5ff3a352adaa099f7659f8cc,,,,,,,,,,,,,,,,,,,,FF,,,,,,,,2,1.92792,,,,,,,,,,,,,,,,,,,,,,,,,,,,8,-73.59998965,-45.60000712,1,0,0,response5disk,1,52,-6.399939823,-10.40000659,1,0,0,rectangle,-6.399939823,-10.40000659,1,0,0,7,1,0,0.001005,-6.399939823,-10.40000659,1,0,0,0,51,51,20,1,,,,,,,,,,,,,,,,,,,,,
,,,,,,,,,,,,,,,,,,,,,,,,,,,,,,,,,,,,,,,,,,,5fa948fdaab0ed07d3724eae,5ff3a3a5d1cd501d32523781,2021-01-05_00h27.33.548,Colour_Similarity_Experiment_v1,2020.1.2,Win32,60,5ff3a352adaa099f7659f8cc,,,,,,,,,,,,,,,,,,,,FF,,,,,,,,0,1.607185,,,,,,,,,,,,,,,,,,,,,,,,,,,,7,-63.99998951,79.99999475,1,0,0,response7disk,7,53,-11.19998872,-8.000006557,1,0,0,rectangle,-11.19998872,-8.000006557,1,0,0,7,0,0,0.000445,-11.19998872,-8.000006557,1,0,0,0,52,52,34,1,,,,,,,,,,,,,,,,,,,,,
,,,,,,,,,,,,,,,,,,,,,,,,,,,,,,,,,,,,,,,,,,,5fa948fdaab0ed07d3724eae,5ff3a3a5d1cd501d32523781,2021-01-05_00h27.33.548,Colour_Similarity_Experiment_v1,2020.1.2,Win32,60,5ff3a352adaa099f7659f8cc,,,,,,,,,,,,,,,,,,,,PF,,,,,,,,5,2.279125,,,,,,,,,,,,,,,,,,,,,,,,,,,,9,94.40001285,-40.00000703,1,0,0,response3disk,3,54,15.20001167,-6.400006533,1,0,0,rectangle,15.20001167,-6.400006533,1,0,0,7,6,0,0.00049,15.20001167,-6.400006533,1,0,0,0,53,53,119,1,,,,,,,,,,,,,,,,,,,,,
,,,,,,,,,,,,,,,,,,,,,,,,,,,,,,,,,,,,,,,,,,,5fa948fdaab0ed07d3724eae,5ff3a3a5d1cd501d32523781,2021-01-05_00h27.33.548,Colour_Similarity_Experiment_v1,2020.1.2,Win32,60,5ff3a352adaa099f7659f8cc,,,,,,,,,,,,,,,,,,,,PF,,,,,,,,6,1.903555,,,,,,,,,,,,,,,,,,,,,,,,,,,,8,96.00001287,38.39999413,1,0,0,response1disk,4,55,12.80001163,-6.4373E-06,1,0,0,rectangle,12.80001163,-6.4373E-06,1,0,0,7,6,0,0.000545,12.80001163,-6.4373E-06,1,0,0,0,54,54,78,1,,,,,,,,,,,,,,,,,,,,,
,,,,,,,,,,,,,,,,,,,,,,,,,,,,,,,,,,,,,,,,,,,5fa948fdaab0ed07d3724eae,5ff3a3a5d1cd501d32523781,2021-01-05_00h27.33.548,Colour_Similarity_Experiment_v1,2020.1.2,Win32,60,5ff3a352adaa099f7659f8cc,,,,,,,,,,,,,,,,,,,,FF,,,,,,,,2,1.585505,,,,,,,,,,,,,,,,,,,,,,,,,,,,4,-71.19998962,-44.00000709,1,0,0,response5disk,3,56,0.800011456,-5.600006521,1,0,0,rectangle,0.800011456,-5.600006521,1,0,0,7,7,0,0.000455,0.800011456,-5.600006521,1,0,0,0,55,55,77,1,,,,,,,,,,,,,,,,,,,,,
,,,,,,,,,,,,,,,,,,,,,,,,,,,,,,,,,,,,,,,,,,,5fa948fdaab0ed07d3724eae,5ff3a3a5d1cd501d32523781,2021-01-05_00h27.33.548,Colour_Similarity_Experiment_v1,2020.1.2,Win32,60,5ff3a352adaa099f7659f8cc,,,,,,,,,,,,,,,,,,,,PF,,,,,,,,6,2.066225,,,,,,,,,,,,,,,,,,,,,,,,,,,,9,103.200013,39.19996973,1,0,0,response1disk,2,57,17.60006053,-2.400006473,1,0,0,rectangle,17.60006053,-2.400006473,1,0,0,7,3,0,0.0005,17.60006053,-2.400006473,1,0,0,0,56,56,157,1,,,,,,,,,,,,,,,,,,,,,
,,,,,,,,,,,,,,,,,,,,,,,,,,,,,,,,,,,,,,,,,,,5fa948fdaab0ed07d3724eae,5ff3a3a5d1cd501d32523781,2021-01-05_00h27.33.548,Colour_Similarity_Experiment_v1,2020.1.2,Win32,60,5ff3a352adaa099f7659f8cc,,,,,,,,,,,,,,,,,,,,FF,,,,,,,,1,1.291025,,,,,,,,,,,,,,,,,,,,,,,,,,,,5,-91.99998993,38.39999413,1,0,0,response7disk,4,58,8.000011563,-12.80000663,1,0,0,rectangle,8.000011563,-12.80000663,1,0,0,7,6,0,0.000465,8.000011563,-12.80000663,1,0,0,0,57,57,8,1,,,,,,,,,,,,,,,,,,,,,
,,,,,,,,,,,,,,,,,,,,,,,,,,,,,,,,,,,,,,,,,,,5fa948fdaab0ed07d3724eae,5ff3a3a5d1cd501d32523781,2021-01-05_00h27.33.548,Colour_Similarity_Experiment_v1,2020.1.2,Win32,60,5ff3a352adaa099f7659f8cc,,,,,,,,,,,,,,,,,,,,FF,,,,,,,,0,1.30151,,,,,,,,,,,,,,,,,,,,,,,,,,,,2,-46.39994042,77.59999472,1,0,0,response7disk,2,59,0.800011456,3.999993622,1,0,0,rectangle,0.800011456,3.999993622,1,0,0,7,6,0,0.0005,0.800011456,3.999993622,1,0,0,0,58,58,142,1,,,,,,,,,,,,,,,,,,,,,
,,,,,,,,,,,,,,,,,,,,,,,,,,,,,,,,,,,,,,,,,,,5fa948fdaab0ed07d3724eae,5ff3a3a5d1cd501d32523781,2021-01-05_00h27.33.548,Colour_Similarity_Experiment_v1,2020.1.2,Win32,60,5ff3a352adaa099f7659f8cc,,,,,,,,,,,,,,,,,,,,FF,,,,,,,,5,2.076555,,,,,,,,,,,,,,,,,,,,,,,,,,,,2,84.0000127,-44.8000071,1,0,0,response3disk,3,60,8.800011575,-4.800006509,1,0,0,rectangle,36.00001198,-100.8000079,1,0,0,4,4,1,2.395935,0.800011456,-2.400006473,1,0,0,0,59,59,104,1,response3disk_3,rectangle,,,,,,,,,,,,,,,,,,,
,,,,,,,,,,,,,,,,,,,,,,,,,,,,,,,,,,,,,,,,,,,5fa948fdaab0ed07d3724eae,5ff3a3a5d1cd501d32523781,2021-01-05_00h27.33.548,Colour_Similarity_Experiment_v1,2020.1.2,Win32,60,5ff3a352adaa099f7659f8cc,,,,,,,,,,,,,,,,,,,,FF,,,,,,,,3,2.416115,,,,,,,,,,,,,,,,,,,,,,,,,,,,6,-43.1999892,-83.20000768,1,0,0,response5disk,5,61,4.800011516,8.799993694,1,0,0,rectangle,4.800011516,8.799993694,1,0,0,4,6,0,0.00051,4.800011516,8.799993694,1,0,0,0,60,60,126,1,,,,,,,,,,,,,,,,,,,,,
,,,,,,,,,,,,,,,,,,,,,,,,,,,,,,,,,,,,,,,,,,,5fa948fdaab0ed07d3724eae,5ff3a3a5d1cd501d32523781,2021-01-05_00h27.33.548,Colour_Similarity_Experiment_v1,2020.1.2,Win32,60,5ff3a352adaa099f7659f8cc,,,,,,,,,,,,,,,,,,,,PF,,,,,,,,7,1.44406,,,,,,,,,,,,,,,,,,,,,,,,,,,,3,60.80001235,111.1999708,1,0,0,response1disk,8,62,14.40001166,1.599993587,1,0,0,rectangle,14.40001166,1.599993587,1,0,0,4,4,0,0.001545,14.40001166,1.599993587,1,0,0,0,61,61,3,1,,,,,,,,,,,,,,,,,,,,,
,,,,,,,,,,,,,,,,,,,,,,,,,,,,,,,,,,,,,,,,,,,5fa948fdaab0ed07d3724eae,5ff3a3a5d1cd501d32523781,2021-01-05_00h27.33.548,Colour_Similarity_Experiment_v1,2020.1.2,Win32,60,5ff3a352adaa099f7659f8cc,,,,,,,,,,,,,,,,,,,,PF,,,,,,,,6,2.041445,,,,,,,,,,,,,,,,,,,,,,,,,,,,5,82.40001267,54.39999437,1,0,0,response1disk,9,63,-2.399939764,9.599993706,1,0,0,rectangle,112.0000131,26.39999396,1,0,0,6,6,1,2.70093,7.200011551,1.599993587,1,0,0,0,62,62,136,1,response1disk_3,rectangle,,,,,,,,,,,,,,,,,,,
,,,,,,,,,,,,,,,,,,,,,,,,,,,,,,,,,,,,,,,,,,,5fa948fdaab0ed07d3724eae,5ff3a3a5d1cd501d32523781,2021-01-05_00h27.33.548,Colour_Similarity_Experiment_v1,2020.1.2,Win32,60,5ff3a352adaa099f7659f8cc,,,,,,,,,,,,,,,,,,,,PF,,,,,,,,6,1.59585,,,,,,,,,,,,,,,,,,,,,,,,,,,,2,116.8000132,42.39999419,1,0,0,response1disk,4,64,16.00001168,-2.400006473,1,0,0,rectangle,16.00001168,-2.400006473,1,0,0,6,1,0,0.000545,16.00001168,-2.400006473,1,0,0,0,63,63,127,1,,,,,,,,,,,,,,,,,,,,,
,,,,,,,,,,,,,,,,,,,,,,,,,,,,,,,,,,,,,,,,,,,5fa948fdaab0ed07d3724eae,5ff3a3a5d1cd501d32523781,2021-01-05_00h27.33.548,Colour_Similarity_Experiment_v1,2020.1.2,Win32,60,5ff3a352adaa099f7659f8cc,,,,,,,,,,,,,,,,,,,,PF,,,,,,,,7,1.425,,,,,,,,,,,,,,,,,,,,,,,,,,,,7,46.40001214,101.5999951,1,0,0,response1disk,2,65,10.4000116,-3.200006485,1,0,0,rectangle,10.4000116,-3.200006485,1,0,0,6,5,0,0.000545,10.4000116,-3.200006485,1,0,0,0,64,64,32,1,,,,,,,,,,,,,,,,,,,,,
,,,,,,,,,,,,,,,,,,,,,,,,,,,,,,,,,,,,,,,,,,,5fa948fdaab0ed07d3724eae,5ff3a3a5d1cd501d32523781,2021-01-05_00h27.33.548,Colour_Similarity_Experiment_v1,2020.1.2,Win32,60,5ff3a352adaa099f7659f8cc,,,,,,,,,,,,,,,,,,,,FF,,,,,,,,7,1.28117,,,,,,,,,,,,,,,,,,,,,,,,,,,,9,40.00001204,74.39999467,1,0,0,response1disk,3,66,16.80001169,3.19999361,1,0,0,rectangle,16.80001169,3.19999361,1,0,0,6,4,0,0.00046,16.80001169,3.19999361,1,0,0,0,65,65,141,1,,,,,,,,,,,,,,,,,,,,,
,,,,,,,,,,,,,,,,,,,,,,,,,,,,,,,,,,,,,,,,,,,5fa948fdaab0ed07d3724eae,5ff3a3a5d1cd501d32523781,2021-01-05_00h27.33.548,Colour_Similarity_Experiment_v1,2020.1.2,Win32,60,5ff3a352adaa099f7659f8cc,,,,,,,,,,,,,,,,,,,,PF,,,,,,,,6,1.4425,,,,,,,,,,,,,,,,,,,,,,,,,,,,8,84.0000127,31.99999404,1,0,0,response1disk,2,67,8.800011575,3.19999361,1,0,0,rectangle,8.800011575,3.19999361,1,0,0,6,7,0,0.000545,8.800011575,3.19999361,1,0,0,0,66,66,83,1,,,,,,,,,,,,,,,,,,,,,
,,,,,,,,,,,,,,,,,,,,,,,,,,,,,,,,,,,,,,,,,,,5fa948fdaab0ed07d3724eae,5ff3a3a5d1cd501d32523781,2021-01-05_00h27.33.548,Colour_Similarity_Experiment_v1,2020.1.2,Win32,60,5ff3a352adaa099f7659f8cc,,,,,,,,,,,,,,,,,,,,FF,,,,,,,,5,1.91885,,,,,,,,,,,,,,,,,,,,,,,,,,,,1,80.00001264,-54.40000725,1,0,0,response3disk,8,68,-1.59998858,-8.000006557,1,0,0,rectangle,-1.59998858,-8.000006557,1,0,0,6,2,0,0.000475,-1.59998858,-8.000006557,1,0,0,0,67,67,27,1,,,,,,,,,,,,,,,,,,,,,
,,,,,,,,,,,,,,,,,,,,,,,,,,,,,,,,,,,,,,,,,,,5fa948fdaab0ed07d3724eae,5ff3a3a5d1cd501d32523781,2021-01-05_00h27.33.548,Colour_Similarity_Experiment_v1,2020.1.2,Win32,60,5ff3a352adaa099f7659f8cc,,,,,,,,,,,,,,,,,,,,FF,,,,,,,,3,1.75549,,,,,,,,,,,,,,,,,,,,,,,,,,,,2,-43.1999892,-75.20000756,1,0,0,response5disk,1,69,1.14441E-05,-6.4373E-06,1,0,0,rectangle,1.14441E-05,-6.4373E-06,1,0,0,6,0,0,0.00055,1.14441E-05,-6.4373E-06,1,0,0,0,68,68,85,1,,,,,,,,,,,,,,,,,,,,,
,,,,,,,,,,,,,,,,,,,,,,,,,,,,,,,,,,,,,,,,,,,5fa948fdaab0ed07d3724eae,5ff3a3a5d1cd501d32523781,2021-01-05_00h27.33.548,Colour_Similarity_Experiment_v1,2020.1.2,Win32,60,5ff3a352adaa099f7659f8cc,,,,,,,,,,,,,,,,,,,,PF,,,,,,,,5,1.429325,,,,,,,,,,,,,,,,,,,,,,,,,,,,7,79.20001262,-56.00000727,1,0,0,response3disk,4,70,11.20001161,-2.400006473,1,0,0,rectangle,11.20001161,-2.400006473,1,0,0,6,1,0,0.000555,11.20001161,-2.400006473,1,0,0,0,69,69,43,1,,,,,,,,,,,,,,,,,,,,,
,,,,,,,,,,,,,,,,,,,,,,,,,,,,,,,,,,,,,,,,,,,5fa948fdaab0ed07d3724eae,5ff3a3a5d1cd501d32523781,2021-01-05_00h27.33.548,Colour_Similarity_Experiment_v1,2020.1.2,Win32,60,5ff3a352adaa099f7659f8cc,,,,,,,,,,,,,,,,,,,,FF,,,,,,,,5,3.49694,,,,,,,,,,,,,,,,,,,,,,,,,,,,7,70.40001249,-46.40000713,1,0,0,response3disk,4,71,5.600060356,-3.200006485,1,0,0,rectangle,5.600060356,-3.200006485,1,0,0,6,0,0,0.00061,5.600060356,-3.200006485,1,0,0,0,70,70,158,1,,,,,,,,,,,,,,,,,,,,,
,,,,,,,,,,,,,,,,,,,,,,,,,,,,,,,,,,,,,,,,,,,5fa948fdaab0ed07d3724eae,5ff3a3a5d1cd501d32523781,2021-01-05_00h27.33.548,Colour_Similarity_Experiment_v1,2020.1.2,Win32,60,5ff3a352adaa099f7659f8cc,,,,,,,,,,,,,,,,,,,,PF,,,,,,,,3,1.42574,,,,,,,,,,,,,,,,,,,,,,,,,,,,3,-56.7999894,-83.20000768,1,0,0,response5disk,5,72,-1.59998858,-8.800006568,1,0,0,rectangle,-1.59998858,-8.800006568,1,0,0,6,5,0,0.0005,-1.59998858,-8.800006568,1,0,0,0,71,71,66,1,,,,,,,,,,,,,,,,,,,,,
,,,,,,,,,,,,,,,,,,,,,,,,,,,,,,,,,,,,,,,,,,,5fa948fdaab0ed07d3724eae,5ff3a3a5d1cd501d32523781,2021-01-05_00h27.33.548,Colour_Similarity_Experiment_v1,2020.1.2,Win32,60,5ff3a352adaa099f7659f8cc,,,,,,,,,,,,,,,,,,,,FF,,,,,,,,0,1.134445,,,,,,,,,,,,,,,,,,,,,,,,,,,,9,-39.19998914,98.39999503,1,0,0,response7disk,9,73,-4.799988627,-1.600006461,1,0,0,rectangle,-4.799988627,-1.600006461,1,0,0,6,2,0,0.000665,-4.799988627,-1.600006461,1,0,0,0,72,72,17,1,,,,,,,,,,,,,,,,,,,,,
,,,,,,,,,,,,,,,,,,,,,,,,,,,,,,,,,,,,,,,,,,,5fa948fdaab0ed07d3724eae,5ff3a3a5d1cd501d32523781,2021-01-05_00h27.33.548,Colour_Similarity_Experiment_v1,2020.1.2,Win32,60,5ff3a352adaa099f7659f8cc,,,,,,,,,,,,,,,,,,,,FF,,,,,,,,0,1.28262,,,,,,,,,,,,,,,,,,,,,,,,,,,,3,-31.99998903,88.79999489,1,0,0,response7disk,3,74,7.200011551,-1.600006461,1,0,0,rectangle,7.200011551,-1.600006461,1,0,0,6,7,0,0.000455,7.200011551,-1.600006461,1,0,0,0,73,73,68,1,,,,,,,,,,,,,,,,,,,,,
,,,,,,,,,,,,,,,,,,,,,,,,,,,,,,,,,,,,,,,,,,,5fa948fdaab0ed07d3724eae,5ff3a3a5d1cd501d32523781,2021-01-05_00h27.33.548,Colour_Similarity_Experiment_v1,2020.1.2,Win32,60,5ff3a352adaa099f7659f8cc,,,,,,,,,,,,,,,,,,,,PF,,,,,,,,0,1.11919,,,,,,,,,,,,,,,,,,,,,,,,,,,,3,-40.79998916,101.5999951,1,0,0,response7disk,3,75,-11.99998873,-1.600006461,1,0,0,rectangle,-11.99998873,-1.600006461,1,0,0,6,7,0,0.00045,-11.99998873,-1.600006461,1,0,0,0,74,74,4,1,,,,,,,,,,,,,,,,,,,,,
,,,,,,,,,,,,,,,,,,,,,,,,,,,,,,,,,,,,,,,,,,,5fa948fdaab0ed07d3724eae,5ff3a3a5d1cd501d32523781,2021-01-05_00h27.33.548,Colour_Similarity_Experiment_v1,2020.1.2,Win32,60,5ff3a352adaa099f7659f8cc,,,,,,,,,,,,,,,,,,,,PF,,,,,,,,6,1.13465,,,,,,,,,,,,,,,,,,,,,,,,,,,,6,86.40001273,58.39999443,1,0,0,response1disk,9,76,5.600060356,3.19999361,1,0,0,rectangle,5.600060356,3.19999361,1,0,0,6,6,0,0.0005,5.600060356,3.19999361,1,0,0,0,75,75,45,1,,,,,,,,,,,,,,,,,,,,,
,,,,,,,,,,,,,,,,,,,,,,,,,,,,,,,,,,,,,,,,,,,5fa948fdaab0ed07d3724eae,5ff3a3a5d1cd501d32523781,2021-01-05_00h27.33.548,Colour_Similarity_Experiment_v1,2020.1.2,Win32,60,5ff3a352adaa099f7659f8cc,,,,,,,,,,,,,,,,,,,,FF,,,,,,,,7,1.927055,,,,,,,,,,,,,,,,,,,,,,,,,,,,5,56.00001228,94.39999497,1,0,0,response1disk,9,77,5.600060356,3.999993622,1,0,0,rectangle,5.600060356,3.999993622,1,0,0,6,7,0,0.00052,5.600060356,3.999993622,1,0,0,0,76,76,61,1,,,,,,,,,,,,,,,,,,,,,
,,,,,,,,,,,,,,,,,,,,,,,,,,,,,,,,,,,,,,,,,,,5fa948fdaab0ed07d3724eae,5ff3a3a5d1cd501d32523781,2021-01-05_00h27.33.548,Colour_Similarity_Experiment_v1,2020.1.2,Win32,60,5ff3a352adaa099f7659f8cc,,,,,,,,,,,,,,,,,,,,PF,,,,,,,,3,3.566605,,,,,,,,,,,,,,,,,,,,,,,,,,,,5,-30.39994018,-88.00000775,1,0,0,response5disk,7,78,0.800011456,2.399993598,1,0,0,rectangle,0.800011456,2.399993598,1,0,0,6,6,0,0.000575,0.800011456,2.399993598,1,0,0,0,77,77,146,1,,,,,,,,,,,,,,,,,,,,,
,,,,,,,,,,,,,,,,,,,,,,,,,,,,,,,,,,,,,,,,,,,5fa948fdaab0ed07d3724eae,5ff3a3a5d1cd501d32523781,2021-01-05_00h27.33.548,Colour_Similarity_Experiment_v1,2020.1.2,Win32,60,5ff3a352adaa099f7659f8cc,,,,,,,,,,,,,,,,,,,,FF,,,,,,,,2,1.634945,,,,,,,,,,,,,,,,,,,,,,,,,,,,4,-75.99998969,-36.80000699,1,0,0,response5disk,5,79,-9.599988699,-2.400006473,1,0,0,rectangle,-9.599988699,-2.400006473,1,0,0,6,7,0,0.00051,-9.599988699,-2.400006473,1,0,0,0,78,78,116,1,,,,,,,,,,,,,,,,,,,,,
,,,,,,,,,,,,,,,,,,,,,,,,,,,,,,,,,,,,,,,,,,,5fa948fdaab0ed07d3724eae,5ff3a3a5d1cd501d32523781,2021-01-05_00h27.33.548,Colour_Similarity_Experiment_v1,2020.1.2,Win32,60,5ff3a352adaa099f7659f8cc,,,,,,,,,,,,,,,,,,,,PF,,,,,,,,0,2.234575,,,,,,,,,,,,,,,,,,,,,,,,,,,,2,-32.79998904,61.59999448,1,0,0,response7disk,2,80,-5.599988639,-7.200006545,1,0,0,rectangle,-5.599988639,-7.200006545,1,0,0,6,5,0,0.000485,-5.599988639,-7.200006545,1,0,0,0,79,79,14,1,,,,,,,,,,,,,,,,,,,,,
,,,,,,,,,,,,,,,,,,,,,,,,,,,,,,,,,,,,,,,,,,,5fa948fdaab0ed07d3724eae,5ff3a3a5d1cd501d32523781,2021-01-05_00h27.33.548,Colour_Similarity_Experiment_v1,2020.1.2,Win32,60,5ff3a352adaa099f7659f8cc,,,,,,,,,,,,,,,,,,,,PF,,,,,,,,6,1.292155,,,,,,,,,,,,,,,,,,,,,,,,,,,,8,84.0000127,39.19996973,1,0,0,response1disk,3,81,25.60006065,3.19999361,1,0,0,rectangle,25.60006065,3.19999361,1,0,0,6,2,0,0.00048,25.60006065,3.19999361,1,0,0,0,80,80,71,1,,,,,,,,,,,,,,,,,,,,,
,,,,,,,,,,,,,,,,,,,,,,,,,,,,,,,,,,,,,,,,,,,5fa948fdaab0ed07d3724eae,5ff3a3a5d1cd501d32523781,2021-01-05_00h27.33.548,Colour_Similarity_Experiment_v1,2020.1.2,Win32,60,5ff3a352adaa099f7659f8cc,,,,,,,,,,,,,,,,,,,,FF,,,,,,,,7,1.28997,,,,,,,,,,,,,,,,,,,,,,,,,,,,9,63.20001239,83.19997039,1,0,0,response1disk,5,82,8.800011575,5.599993646,1,0,0,rectangle,8.800011575,5.599993646,1,0,0,6,6,0,0.00049,8.800011575,5.599993646,1,0,0,0,81,81,128,1,,,,,,,,,,,,,,,,,,,,,
,,,,,,,,,,,,,,,,,,,,,,,,,,,,,,,,,,,,,,,,,,,5fa948fdaab0ed07d3724eae,5ff3a3a5d1cd501d32523781,2021-01-05_00h27.33.548,Colour_Similarity_Experiment_v1,2020.1.2,Win32,60,5ff3a352adaa099f7659f8cc,,,,,,,,,,,,,,,,,,,,FF,,,,,,,,1,1.73725,,,,,,,,,,,,,,,,,,,,,,,,,,,,9,-91.99998993,35.9999941,1,0,0,response7disk,8,83,13.60006047,-3.200006485,1,0,0,rectangle,13.60006047,-3.200006485,1,0,0,6,6,0,0.00046,13.60006047,-3.200006485,1,0,0,0,82,82,6,1,,,,,,,,,,,,,,,,,,,,,
,,,,,,,,,,,,,,,,,,,,,,,,,,,,,,,,,,,,,,,,,,,5fa948fdaab0ed07d3724eae,5ff3a3a5d1cd501d32523781,2021-01-05_00h27.33.548,Colour_Similarity_Experiment_v1,2020.1.2,Win32,60,5ff3a352adaa099f7659f8cc,,,,,,,,,,,,,,,,,,,,PF,,,,,,,,1,1.106445,,,,,,,,,,,,,,,,,,,,,,,,,,,,8,-85.59998983,56.79999441,1,0,0,response7disk,9,84,8.000011563,3.19999361,1,0,0,rectangle,8.000011563,3.19999361,1,0,0,6,1,0,0.00055,8.000011563,3.19999361,1,0,0,0,83,83,42,1,,,,,,,,,,,,,,,,,,,,,
,,,,,,,,,,,,,,,,,,,,,,,,,,,,,,,,,,,,,,,,,,,5fa948fdaab0ed07d3724eae,5ff3a3a5d1cd501d32523781,2021-01-05_00h27.33.548,Colour_Similarity_Experiment_v1,2020.1.2,Win32,60,5ff3a352adaa099f7659f8cc,,,,,,,,,,,,,,,,,,,,FF,,,,,,,,2,2.11115,,,,,,,,,,,,,,,,,,,,,,,,,,,,7,-78.3999409,-35.20000696,1,0,0,response5disk,8,85,-11.19998872,-0.800006449,1,0,0,rectangle,-70.39994078,37.59999412,1,0,0,1,1,1,1.914905,-0.799988568,-6.4373E-06,1,0,0,0,84,84,97,1,response7disk_3,rectangle,,,,,,,,,,,,,,,,,,,
,,,,,,,,,,,,,,,,,,,,,,,,,,,,,,,,,,,,,,,,,,,5fa948fdaab0ed07d3724eae,5ff3a3a5d1cd501d32523781,2021-01-05_00h27.33.548,Colour_Similarity_Experiment_v1,2020.1.2,Win32,60,5ff3a352adaa099f7659f8cc,,,,,,,,,,,,,,,,,,,,PF,,,,,,,,0,1.102745,,,,,,,,,,,,,,,,,,,,,,,,,,,,9,-47.99998927,89.5999949,1,0,0,response7disk,9,86,-15.99998879,5.599993646,1,0,0,rectangle,-15.99998879,5.599993646,1,0,0,1,4,0,0.00048,-15.99998879,5.599993646,1,0,0,0,85,85,106,1,,,,,,,,,,,,,,,,,,,,,
,,,,,,,,,,,,,,,,,,,,,,,,,,,,,,,,,,,,,,,,,,,5fa948fdaab0ed07d3724eae,5ff3a3a5d1cd501d32523781,2021-01-05_00h27.33.548,Colour_Similarity_Experiment_v1,2020.1.2,Win32,60,5ff3a352adaa099f7659f8cc,,,,,,,,,,,,,,,,,,,,PF,,,,,,,,3,1.91909,,,,,,,,,,,,,,,,,,,,,,,,,,,,7,-40.79998916,-90.40000778,1,0,0,response5disk,5,87,-8.799988687,-5.600006521,1,0,0,rectangle,-8.799988687,-5.600006521,1,0,0,1,6,0,0.000445,-8.799988687,-5.600006521,1,0,0,0,86,86,92,1,,,,,,,,,,,,,,,,,,,,,
,,,,,,,,,,,,,,,,,,,,,,,,,,,,,,,,,,,,,,,,,,,5fa948fdaab0ed07d3724eae,5ff3a3a5d1cd501d32523781,2021-01-05_00h27.33.548,Colour_Similarity_Experiment_v1,2020.1.2,Win32,60,5ff3a352adaa099f7659f8cc,,,,,,,,,,,,,,,,,,,,PF,,,,,,,,7,1.44397,,,,,,,,,,,,,,,,,,,,,,,,,,,,1,60.00001234,74.39999467,1,0,0,response1disk,7,88,13.60006047,3.19999361,1,0,0,rectangle,13.60006047,3.19999361,1,0,0,1,1,0,0.000605,13.60006047,3.19999361,1,0,0,0,87,87,150,1,,,,,,,,,,,,,,,,,,,,,
,,,,,,,,,,,,,,,,,,,,,,,,,,,,,,,,,,,,,,,,,,,5fa948fdaab0ed07d3724eae,5ff3a3a5d1cd501d32523781,2021-01-05_00h27.33.548,Colour_Similarity_Experiment_v1,2020.1.2,Win32,60,5ff3a352adaa099f7659f8cc,,,,,,,,,,,,,,,,,,,,FF,,,,,,,,3,1.581515,,,,,,,,,,,,,,,,,,,,,,,,,,,,1,-54.39994054,-76.80000758,1,0,0,response5disk,9,89,-9.599988699,1.599993587,1,0,0,rectangle,-9.599988699,1.599993587,1,0,0,1,4,0,0.00044,-9.599988699,1.599993587,1,0,0,0,88,88,123,1,,,,,,,,,,,,,,,,,,,,,
,,,,,,,,,,,,,,,,,,,,,,,,,,,,,,,,,,,,,,,,,,,5fa948fdaab0ed07d3724eae,5ff3a3a5d1cd501d32523781,2021-01-05_00h27.33.548,Colour_Similarity_Experiment_v1,2020.1.2,Win32,60,5ff3a352adaa099f7659f8cc,,,,,,,,,,,,,,,,,,,,PF,,,,,,,,5,1.79021,,,,,,,,,,,,,,,,,,,,,,,,,,,,7,75.20001256,-49.60000718,1,0,0,response3disk,8,90,-3.199988604,15.9999938,1,0,0,rectangle,-3.199988604,15.9999938,1,0,0,1,3,0,0.000585,-3.199988604,15.9999938,1,0,0,0,89,89,140,1,,,,,,,,,,,,,,,,,,,,,
,,,,,,,,,,,,,,,,,,,,,,,,,,,,,,,,,,,,,,,,,,,5fa948fdaab0ed07d3724eae,5ff3a3a5d1cd501d32523781,2021-01-05_00h27.33.548,Colour_Similarity_Experiment_v1,2020.1.2,Win32,60,5ff3a352adaa099f7659f8cc,,,,,,,,,,,,,,,,,,,,PF,,,,,,,,0,1.452565,,,,,,,,,,,,,,,,,,,,,,,,,,,,6,-36.7999891,93.59999496,1,0,0,response7disk,6,91,-3.999988616,-5.600006521,1,0,0,rectangle,-3.999988616,-5.600006521,1,0,0,1,2,0,0.00049,-3.999988616,-5.600006521,1,0,0,0,90,90,0,1,,,,,,,,,,,,,,,,,,,,,
,,,,,,,,,,,,,,,,,,,,,,,,,,,,,,,,,,,,,,,,,,,5fa948fdaab0ed07d3724eae,5ff3a3a5d1cd501d32523781,2021-01-05_00h27.33.548,Colour_Similarity_Experiment_v1,2020.1.2,Win32,60,5ff3a352adaa099f7659f8cc,,,,,,,,,,,,,,,,,,,,PF,,,,,,,,7,2.078265,,,,,,,,,,,,,,,,,,,,,,,,,,,,4,57.6000123,111.1999708,1,0,0,response1disk,8,92,15.20001167,3.999993622,1,0,0,rectangle,15.20001167,3.999993622,1,0,0,1,2,0,0.00057,15.20001167,3.999993622,1,0,0,0,91,91,124,1,,,,,,,,,,,,,,,,,,,,,
,,,,,,,,,,,,,,,,,,,,,,,,,,,,,,,,,,,,,,,,,,,5fa948fdaab0ed07d3724eae,5ff3a3a5d1cd501d32523781,2021-01-05_00h27.33.548,Colour_Similarity_Experiment_v1,2020.1.2,Win32,60,5ff3a352adaa099f7659f8cc,,,,,,,,,,,,,,,,,,,,PF,,,,,,,,7,0.906525,,,,,,,,,,,,,,,,,,,,,,,,,,,,8,47.20001215,81.59999478,1,0,0,response1disk,5,93,9.600060415,3.19999361,1,0,0,rectangle,9.600060415,3.19999361,1,0,0,1,6,0,0.0005,9.600060415,3.19999361,1,0,0,0,92,92,98,1,,,,,,,,,,,,,,,,,,,,,
,,,,,,,,,,,,,,,,,,,,,,,,,,,,,,,,,,,,,,,,,,,5fa948fdaab0ed07d3724eae,5ff3a3a5d1cd501d32523781,2021-01-05_00h27.33.548,Colour_Similarity_Experiment_v1,2020.1.2,Win32,60,5ff3a352adaa099f7659f8cc,,,,,,,,,,,,,,,,,,,,PF,,,,,,,,5,1.81269,,,,,,,,,,,,,,,,,,,,,,,,,,,,9,72.00001252,-36.00000697,1,0,0,response3disk,6,94,-17.59998882,1.599993587,1,0,0,rectangle,-17.59998882,1.599993587,1,0,0,1,5,0,0.000515,-17.59998882,1.599993587,1,0,0,0,93,93,148,1,,,,,,,,,,,,,,,,,,,,,
,,,,,,,,,,,,,,,,,,,,,,,,,,,,,,,,,,,,,,,,,,,5fa948fdaab0ed07d3724eae,5ff3a3a5d1cd501d32523781,2021-01-05_00h27.33.548,Colour_Similarity_Experiment_v1,2020.1.2,Win32,60,5ff3a352adaa099f7659f8cc,,,,,,,,,,,,,,,,,,,,FF,,,,,,,,1,1.5449,,,,,,,,,,,,,,,,,,,,,,,,,,,,3,-73.59998965,35.19996967,1,0,0,response7disk,4,95,6.400011539,-4.000006497,1,0,0,rectangle,6.400011539,-4.000006497,1,0,0,1,6,0,0.00048,6.400011539,-4.000006497,1,0,0,0,94,94,110,1,,,,,,,,,,,,,,,,,,,,,
,,,,,,,,,,,,,,,,,,,,,,,,,,,,,,,,,,,,,,,,,,,5fa948fdaab0ed07d3724eae,5ff3a3a5d1cd501d32523781,2021-01-05_00h27.33.548,Colour_Similarity_Experiment_v1,2020.1.2,Win32,60,5ff3a352adaa099f7659f8cc,,,,,,,,,,,,,,,,,,,,FF,,,,,,,,5,1.64952,,,,,,,,,,,,,,,,,,,,,,,,,,,,9,96.80001289,-27.20000684,1,0,0,response3disk,2,96,13.60006047,1.599993587,1,0,0,rectangle,-34.39994024,-116.8000082,1,0,0,3,3,1,1.8347,25.60006065,10.39999372,1,0,0,0,95,95,11,1,response5disk_3,rectangle,,,,,,,,,,,,,,,,,,,
,,,,,,,,,,,,,,,,,,,,,,,,,,,,,,,,,,,,,,,,,,,5fa948fdaab0ed07d3724eae,5ff3a3a5d1cd501d32523781,2021-01-05_00h27.33.548,Colour_Similarity_Experiment_v1,2020.1.2,Win32,60,5ff3a352adaa099f7659f8cc,,,,,,,,,,,,,,,,,,,,FF,,,,,,,,2,3.06083,,,,,,,,,,,,,,,,,,,,,,,,,,,,6,-57.59998941,-40.00000703,1,0,0,response5disk,2,97,4.000011504,-6.400006533,1,0,0,rectangle,4.000011504,-6.400006533,1,0,0,3,1,0,0.000475,4.000011504,-6.400006533,1,0,0,0,96,96,112,1,,,,,,,,,,,,,,,,,,,,,
,,,,,,,,,,,,,,,,,,,,,,,,,,,,,,,,,,,,,,,,,,,5fa948fdaab0ed07d3724eae,5ff3a3a5d1cd501d32523781,2021-01-05_00h27.33.548,Colour_Similarity_Experiment_v1,2020.1.2,Win32,60,5ff3a352adaa099f7659f8cc,,,,,,,,,,,,,,,,,,,,PF,,,,,,,,7,1.45397,,,,,,,,,,,,,,,,,,,,,,,,,,,,7,60.80001235,89.5999949,1,0,0,response1disk,1,98,13.60006047,3.19999361,1,0,0,rectangle,13.60006047,3.19999361,1,0,0,3,4,0,0.000485,13.60006047,3.19999361,1,0,0,0,97,97,53,1,,,,,,,,,,,,,,,,,,,,,
,,,,,,,,,,,,,,,,,,,,,,,,,,,,,,,,,,,,,,,,,,,5fa948fdaab0ed07d3724eae,5ff3a3a5d1cd501d32523781,2021-01-05_00h27.33.548,Colour_Similarity_Experiment_v1,2020.1.2,Win32,60,5ff3a352adaa099f7659f8cc,,,,,,,,,,,,,,,,,,,,PF,,,,,,,,5,2.148305,,,,,,,,,,,,,,,,,,,,,,,,,,,,1,71.20001251,-36.80000699,1,0,0,response3disk,9,99,-11.19998872,3.19999361,1,0,0,rectangle,-11.19998872,3.19999361,1,0,0,3,0,0,0.00049,-11.19998872,3.19999361,1,0,0,0,98,98,15,1,,,,,,,,,,,,,,,,,,,,,
,,,,,,,,,,,,,,,,,,,,,,,,,,,,,,,,,,,,,,,,,,,5fa948fdaab0ed07d3724eae,5ff3a3a5d1cd501d32523781,2021-01-05_00h27.33.548,Colour_Similarity_Experiment_v1,2020.1.2,Win32,60,5ff3a352adaa099f7659f8cc,,,,,,,,,,,,,,,,,,,,FF,,,,,,,,6,1.251335,,,,,,,,,,,,,,,,,,,,,,,,,,,,8,82.40001267,35.9999941,1,0,0,response1disk,5,100,-3.199988604,-1.600006461,1,0,0,rectangle,-3.199988604,-1.600006461,1,0,0,3,4,0,0.00047,-3.199988604,-1.600006461,1,0,0,0,99,99,152,1,,,,,,,,,,,,,,,,,,,,,
,,,,,,,,,,,,,,,,,,,,,,,,,,,,,,,,,,,,,,,,,,,5fa948fdaab0ed07d3724eae,5ff3a3a5d1cd501d32523781,2021-01-05_00h27.33.548,Colour_Similarity_Experiment_v1,2020.1.2,Win32,60,5ff3a352adaa099f7659f8cc,,,,,,,,,,,,,,,,,,,,PF,,,,,,,,7,1.229475,,,,,,,,,,,,,,,,,,,,,,,,,,,,1,53.60001224,92.79999495,1,0,0,response1disk,4,101,15.20001167,5.599993646,1,0,0,rectangle,15.20001167,5.599993646,1,0,0,3,3,0,0.00045,15.20001167,5.599993646,1,0,0,0,100,100,139,1,,,,,,,,,,,,,,,,,,,,,
,,,,,,,,,,,,,,,,,,,,,,,,,,,,,,,,,,,,,,,,,,,5fa948fdaab0ed07d3724eae,5ff3a3a5d1cd501d32523781,2021-01-05_00h27.33.548,Colour_Similarity_Experiment_v1,2020.1.2,Win32,60,5ff3a352adaa099f7659f8cc,,,,,,,,,,,,,,,,,,,,FF,,,,,,,,2,1.41652,,,,,,,,,,,,,,,,,,,,,,,,,,,,5,-69.59998959,-32.80000693,1,0,0,response5disk,3,102,-7.199988663,-4.800006509,1,0,0,rectangle,-7.199988663,-4.800006509,1,0,0,3,0,0,0.000515,-7.199988663,-4.800006509,1,0,0,0,101,101,25,1,,,,,,,,,,,,,,,,,,,,,
,,,,,,,,,,,,,,,,,,,,,,,,,,,,,,,,,,,,,,,,,,,5fa948fdaab0ed07d3724eae,5ff3a3a5d1cd501d32523781,2021-01-05_00h27.33.548,Colour_Similarity_Experiment_v1,2020.1.2,Win32,60,5ff3a352adaa099f7659f8cc,,,,,,,,,,,,,,,,,,,,FF,,,,,,,,7,1.663485,,,,,,,,,,,,,,,,,,,,,,,,,,,,5,33.60006077,109.5999952,1,0,0,response1disk,1,103,-2.399939764,-6.4373E-06,1,0,0,rectangle,-2.399939764,-6.4373E-06,1,0,0,3,5,0,0.000635,-2.399939764,-6.4373E-06,1,0,0,0,102,102,131,1,,,,,,,,,,,,,,,,,,,,,
,,,,,,,,,,,,,,,,,,,,,,,,,,,,,,,,,,,,,,,,,,,5fa948fdaab0ed07d3724eae,5ff3a3a5d1cd501d32523781,2021-01-05_00h27.33.548,Colour_Similarity_Experiment_v1,2020.1.2,Win32,60,5ff3a352adaa099f7659f8cc,,,,,,,,,,,,,,,,,,,,FF,,,,,,,,3,1.913815,,,,,,,,,,,,,,,,,,,,,,,,,,,,1,-57.59998941,-92.80000782,1,0,0,response5disk,2,104,0.800011456,0.799993575,1,0,0,rectangle,0.800011456,0.799993575,1,0,0,3,1,0,0.000475,0.800011456,0.799993575,1,0,0,0,103,103,2,1,,,,,,,,,,,,,,,,,,,,,
,,,,,,,,,,,,,,,,,,,,,,,,,,,,,,,,,,,,,,,,,,,5fa948fdaab0ed07d3724eae,5ff3a3a5d1cd501d32523781,2021-01-05_00h27.33.548,Colour_Similarity_Experiment_v1,2020.1.2,Win32,60,5ff3a352adaa099f7659f8cc,,,,,,,,,,,,,,,,,,,,PF,,,,,,,,7,1.36664,,,,,,,,,,,,,,,,,,,,,,,,,,,,4,58.40001231,75.19997027,1,0,0,response1disk,9,105,27.20001185,3.19999361,1,0,0,rectangle,27.20001185,3.19999361,1,0,0,3,6,0,0.00056,27.20001185,3.19999361,1,0,0,0,104,104,75,1,,,,,,,,,,,,,,,,,,,,,
,,,,,,,,,,,,,,,,,,,,,,,,,,,,,,,,,,,,,,,,,,,5fa948fdaab0ed07d3724eae,5ff3a3a5d1cd501d32523781,2021-01-05_00h27.33.548,Colour_Similarity_Experiment_v1,2020.1.2,Win32,60,5ff3a352adaa099f7659f8cc,,,,,,,,,,,,,,,,,,,,PF,,,,,,,,5,1.817115,,,,,,,,,,,,,,,,,,,,,,,,,,,,2,91.2000128,-38.40000701,1,0,0,response3disk,5,106,7.200011551,2.399993598,1,0,0,rectangle,7.200011551,2.399993598,1,0,0,3,4,0,0.00061,7.200011551,2.399993598,1,0,0,0,105,105,147,1,,,,,,,,,,,,,,,,,,,,,
,,,,,,,,,,,,,,,,,,,,,,,,,,,,,,,,,,,,,,,,,,,5fa948fdaab0ed07d3724eae,5ff3a3a5d1cd501d32523781,2021-01-05_00h27.33.548,Colour_Similarity_Experiment_v1,2020.1.2,Win32,60,5ff3a352adaa099f7659f8cc,,,,,,,,,,,,,,,,,,,,FF,,,,,,,,6,2.70318,,,,,,,,,,,,,,,,,,,,,,,,,,,,1,92.00001281,26.39999396,1,0,0,response1disk,5,107,23.20001179,1.599993587,1,0,0,rectangle,23.20001179,1.599993587,1,0,0,3,7,0,0.000515,23.20001179,1.599993587,1,0,0,0,106,106,82,1,,,,,,,,,,,,,,,,,,,,,
,,,,,,,,,,,,,,,,,,,,,,,,,,,,,,,,,,,,,,,,,,,5fa948fdaab0ed07d3724eae,5ff3a3a5d1cd501d32523781,2021-01-05_00h27.33.548,Colour_Similarity_Experiment_v1,2020.1.2,Win32,60,5ff3a352adaa099f7659f8cc,,,,,,,,,,,,,,,,,,,,PF,,,,,,,,4,1.435335,,,,,,,,,,,,,,,,,,,,,,,,,,,,9,36.80001199,-81.60005648,1,0,0,response3disk,1,108,12.80001163,-4.000006497,1,0,0,rectangle,12.80001163,-4.000006497,1,0,0,3,0,0,0.000485,12.80001163,-4.000006497,1,0,0,0,107,107,74,1,,,,,,,,,,,,,,,,,,,,,
,,,,,,,,,,,,,,,,,,,,,,,,,,,,,,,,,,,,,,,,,,,5fa948fdaab0ed07d3724eae,5ff3a3a5d1cd501d32523781,2021-01-05_00h27.33.548,Colour_Similarity_Experiment_v1,2020.1.2,Win32,60,5ff3a352adaa099f7659f8cc,,,,,,,,,,,,,,,,,,,,PF,,,,,,,,6,1.58358,,,,,,,,,,,,,,,,,,,,,,,,,,,,3,78.40001261,48.79999429,1,0,0,response1disk,9,109,21.60006059,-0.800006449,1,0,0,rectangle,21.60006059,-0.800006449,1,0,0,3,4,0,0.00056,21.60006059,-0.800006449,1,0,0,0,108,108,79,1,,,,,,,,,,,,,,,,,,,,,
,,,,,,,,,,,,,,,,,,,,,,,,,,,,,,,,,,,,,,,,,,,5fa948fdaab0ed07d3724eae,5ff3a3a5d1cd501d32523781,2021-01-05_00h27.33.548,Colour_Similarity_Experiment_v1,2020.1.2,Win32,60,5ff3a352adaa099f7659f8cc,,,,,,,,,,,,,,,,,,,,FF,,,,,,,,7,1.083355,,,,,,,,,,,,,,,,,,,,,,,,,,,,4,40.80001205,65.59999454,1,0,0,response1disk,9,110,24.0000118,3.999993622,1,0,0,rectangle,24.0000118,3.999993622,1,0,0,3,7,0,0.00061,24.0000118,3.999993622,1,0,0,0,109,109,90,1,,,,,,,,,,,,,,,,,,,,,
,,,,,,,,,,,,,,,,,,,,,,,,,,,,,,,,,,,,,,,,,,,5fa948fdaab0ed07d3724eae,5ff3a3a5d1cd501d32523781,2021-01-05_00h27.33.548,Colour_Similarity_Experiment_v1,2020.1.2,Win32,60,5ff3a352adaa099f7659f8cc,,,,,,,,,,,,,,,,,,,,PF,,,,,,,,5,1.283415,,,,,,,,,,,,,,,,,,,,,,,,,,,,3,73.60001254,-41.60000706,1,0,0,response3disk,2,111,26.40001184,-1.600006461,1,0,0,rectangle,93.60001284,40.79999417,1,0,0,6,6,1,1.915075,-17.59998882,-8.000006557,1,0,0,0,110,110,36,1,response1disk_3,rectangle,,,,,,,,,,,,,,,,,,,
,,,,,,,,,,,,,,,,,,,,,,,,,,,,,,,,,,,,,,,,,,,5fa948fdaab0ed07d3724eae,5ff3a3a5d1cd501d32523781,2021-01-05_00h27.33.548,Colour_Similarity_Experiment_v1,2020.1.2,Win32,60,5ff3a352adaa099f7659f8cc,,,,,,,,,,,,,,,,,,,,PF,,,,,,,,3,3.39957,,,,,,,,,,,,,,,,,,,,,,,,,,,,8,-29.599989,-95.20000786,1,0,0,response5disk,1,112,0.800011456,11.99999374,1,0,0,rectangle,0.800011456,11.99999374,1,0,0,6,5,0,0.00058,0.800011456,11.99999374,1,0,0,0,111,111,57,1,,,,,,,,,,,,,,,,,,,,,
,,,,,,,,,,,,,,,,,,,,,,,,,,,,,,,,,,,,,,,,,,,5fa948fdaab0ed07d3724eae,5ff3a3a5d1cd501d32523781,2021-01-05_00h27.33.548,Colour_Similarity_Experiment_v1,2020.1.2,Win32,60,5ff3a352adaa099f7659f8cc,,,,,,,,,,,,,,,,,,,,FF,,,,,,,,5,6.567445,,,,,,,,,,,,,,,,,,,,,,,,,,,,4,64.80001241,-51.2000072,1,0,0,response3disk,7,113,5.600060356,-1.600006461,1,0,0,rectangle,5.600060356,-1.600006461,1,0,0,6,0,0,0.000575,5.600060356,-1.600006461,1,0,0,0,112,112,87,1,,,,,,,,,,,,,,,,,,,,,
,,,,,,,,,,,,,,,,,,,,,,,,,,,,,,,,,,,,,,,,,,,5fa948fdaab0ed07d3724eae,5ff3a3a5d1cd501d32523781,2021-01-05_00h27.33.548,Colour_Similarity_Experiment_v1,2020.1.2,Win32,60,5ff3a352adaa099f7659f8cc,,,,,,,,,,,,,,,,,,,,FF,,,,,,,,2,2.483165,,,,,,,,,,,,,,,,,,,,,,,,,,,,7,-76.7999897,-50.40000719,1,0,0,response5disk,6,114,1.14441E-05,-4.800006509,1,0,0,rectangle,1.14441E-05,-4.800006509,1,0,0,6,1,0,0.0012,1.14441E-05,-4.800006509,1,0,0,0,113,113,31,1,,,,,,,,,,,,,,,,,,,,,
,,,,,,,,,,,,,,,,,,,,,,,,,,,,,,,,,,,,,,,,,,,5fa948fdaab0ed07d3724eae,5ff3a3a5d1cd501d32523781,2021-01-05_00h27.33.548,Colour_Similarity_Experiment_v1,2020.1.2,Win32,60,5ff3a352adaa099f7659f8cc,,,,,,,,,,,,,,,,,,,,PF,,,,,,,,6,1.15122,,,,,,,,,,,,,,,,,,,,,,,,,,,,7,69.60001248,29.599994,1,0,0,response1disk,9,115,26.40001184,0.799993575,1,0,0,rectangle,26.40001184,0.799993575,1,0,0,6,3,0,0.00067,26.40001184,0.799993575,1,0,0,0,114,114,10,1,,,,,,,,,,,,,,,,,,,,,
,,,,,,,,,,,,,,,,,,,,,,,,,,,,,,,,,,,,,,,,,,,5fa948fdaab0ed07d3724eae,5ff3a3a5d1cd501d32523781,2021-01-05_00h27.33.548,Colour_Similarity_Experiment_v1,2020.1.2,Win32,60,5ff3a352adaa099f7659f8cc,,,,,,,,,,,,,,,,,,,,FF,,,,,,,,7,1.136375,,,,,,,,,,,,,,,,,,,,,,,,,,,,3,44.80001211,101.5999951,1,0,0,response1disk,8,116,4.800011516,-2.400006473,1,0,0,rectangle,4.800011516,-2.400006473,1,0,0,6,1,0,0.000605,4.800011516,-2.400006473,1,0,0,0,115,115,44,1,,,,,,,,,,,,,,,,,,,,,
,,,,,,,,,,,,,,,,,,,,,,,,,,,,,,,,,,,,,,,,,,,5fa948fdaab0ed07d3724eae,5ff3a3a5d1cd501d32523781,2021-01-05_00h27.33.548,Colour_Similarity_Experiment_v1,2020.1.2,Win32,60,5ff3a352adaa099f7659f8cc,,,,,,,,,,,,,,,,,,,,FF,,,,,,,,7,1.26997,,,,,,,,,,,,,,,,,,,,,,,,,,,,7,28.80001187,62.39999449,1,0,0,response1disk,1,117,10.4000116,14.39999378,1,0,0,rectangle,10.4000116,14.39999378,1,0,0,6,5,0,0.000665,10.4000116,14.39999378,1,0,0,0,116,116,132,1,,,,,,,,,,,,,,,,,,,,,
,,,,,,,,,,,,,,,,,,,,,,,,,,,,,,,,,,,,,,,,,,,5fa948fdaab0ed07d3724eae,5ff3a3a5d1cd501d32523781,2021-01-05_00h27.33.548,Colour_Similarity_Experiment_v1,2020.1.2,Win32,60,5ff3a352adaa099f7659f8cc,,,,,,,,,,,,,,,,,,,,PF,,,,,,,,7,0.750195,,,,,,,,,,,,,,,,,,,,,,,,,,,,3,36.80001199,85.59999484,1,0,0,response1disk,1,118,15.20001167,15.9999938,1,0,0,rectangle,15.20001167,15.9999938,1,0,0,6,6,0,0.00111,15.20001167,15.9999938,1,0,0,0,117,117,96,1,,,,,,,,,,,,,,,,,,,,,
,,,,,,,,,,,,,,,,,,,,,,,,,,,,,,,,,,,,,,,,,,,5fa948fdaab0ed07d3724eae,5ff3a3a5d1cd501d32523781,2021-01-05_00h27.33.548,Colour_Similarity_Experiment_v1,2020.1.2,Win32,60,5ff3a352adaa099f7659f8cc,,,,,,,,,,,,,,,,,,,,PF,,,,,,,,2,3.366795,,,,,,,,,,,,,,,,,,,,,,,,,,,,7,-71.19998962,-57.6000073,1,0,0,response5disk,6,119,-5.599988639,-4.000006497,1,0,0,rectangle,-5.599988639,-4.000006497,1,0,0,6,5,0,0.00064,-5.599988639,-4.000006497,1,0,0,0,118,118,29,1,,,,,,,,,,,,,,,,,,,,,
,,,,,,,,,,,,,,,,,,,,,,,,,,,,,,,,,,,,,,,,,,,5fa948fdaab0ed07d3724eae,5ff3a3a5d1cd501d32523781,2021-01-05_00h27.33.548,Colour_Similarity_Experiment_v1,2020.1.2,Win32,60,5ff3a352adaa099f7659f8cc,,,,,,,,,,,,,,,,,,,,PF,,,,,,,,7,1.415955,,,,,,,,,,,,,,,,,,,,,,,,,,,,1,46.40001214,67.99999458,1,0,0,response1disk,6,120,28.80001187,-0.800006449,1,0,0,rectangle,28.80001187,-0.800006449,1,0,0,6,6,0,0.000995,28.80001187,-0.800006449,1,0,0,0,119,119,144,1,,,,,,,,,,,,,,,,,,,,,
,,,,,,,,,,,,,,,,,,,,,,,,,,,,,,,,,,,,,,,,,,,5fa948fdaab0ed07d3724eae,5ff3a3a5d1cd501d32523781,2021-01-05_00h27.33.548,Colour_Similarity_Experiment_v1,2020.1.2,Win32,60,5ff3a352adaa099f7659f8cc,,,,,,,,,,,,,,,,,,,,PF,,,,,,,,5,1.153455,,,,,,,,,,,,,,,,,,,,,,,,,,,,4,70.40001249,-48.80000716,1,0,0,response3disk,7,121,-14.39993994,-4.800006509,1,0,0,rectangle,-14.39993994,-4.800006509,1,0,0,6,1,0,0.00058,-14.39993994,-4.800006509,1,0,0,0,120,120,38,1,,,,,,,,,,,,,,,,,,,,,
,,,,,,,,,,,,,,,,,,,,,,,,,,,,,,,,,,,,,,,,,,,5fa948fdaab0ed07d3724eae,5ff3a3a5d1cd501d32523781,2021-01-05_00h27.33.548,Colour_Similarity_Experiment_v1,2020.1.2,Win32,60,5ff3a352adaa099f7659f8cc,,,,,,,,,,,,,,,,,,,,FF,,,,,,,,7,1.364195,,,,,,,,,,,,,,,,,,,,,,,,,,,,2,50.4000122,111.1999708,1,0,0,response1disk,7,122,8.800011575,2.399993598,1,0,0,rectangle,8.800011575,2.399993598,1,0,0,6,5,0,0.000555,8.800011575,2.399993598,1,0,0,0,121,121,63,1,,,,,,,,,,,,,,,,,,,,,
,,,,,,,,,,,,,,,,,,,,,,,,,,,,,,,,,,,,,,,,,,,5fa948fdaab0ed07d3724eae,5ff3a3a5d1cd501d32523781,2021-01-05_00h27.33.548,Colour_Similarity_Experiment_v1,2020.1.2,Win32,60,5ff3a352adaa099f7659f8cc,,,,,,,,,,,,,,,,,,,,FF,,,,,,,,7,0.94933,,,,,,,,,,,,,,,,,,,,,,,,,,,,4,55.20001227,90.39999491,1,0,0,response1disk,1,123,23.20001179,3.19999361,1,0,0,rectangle,23.20001179,3.19999361,1,0,0,6,4,0,0.00132,23.20001179,3.19999361,1,0,0,0,122,122,102,1,,,,,,,,,,,,,,,,,,,,,
,,,,,,,,,,,,,,,,,,,,,,,,,,,,,,,,,,,,,,,,,,,5fa948fdaab0ed07d3724eae,5ff3a3a5d1cd501d32523781,2021-01-05_00h27.33.548,Colour_Similarity_Experiment_v1,2020.1.2,Win32,60,5ff3a352adaa099f7659f8cc,,,,,,,,,,,,,,,,,,,,PF,,,,,,,,7,1.035125,,,,,,,,,,,,,,,,,,,,,,,,,,,,1,44.80001211,81.59999478,1,0,0,response1disk,5,124,13.60006047,-6.400006533,1,0,0,rectangle,13.60006047,-6.400006533,1,0,0,6,6,0,0.001025,13.60006047,-6.400006533,1,0,0,0,123,123,28,1,,,,,,,,,,,,,,,,,,,,,
,,,,,,,,,,,,,,,,,,,,,,,,,,,,,,,,,,,,,,,,,,,5fa948fdaab0ed07d3724eae,5ff3a3a5d1cd501d32523781,2021-01-05_00h27.33.548,Colour_Similarity_Experiment_v1,2020.1.2,Win32,60,5ff3a352adaa099f7659f8cc,,,,,,,,,,,,,,,,,,,,FF,,,,,,,,6,1.58273,,,,,,,,,,,,,,,,,,,,,,,,,,,,5,99.20001292,29.599994,1,0,0,response1disk,8,125,14.40001166,1.599993587,1,0,0,rectangle,14.40001166,1.599993587,1,0,0,6,6,0,0.00066,14.40001166,1.599993587,1,0,0,0,124,124,16,1,,,,,,,,,,,,,,,,,,,,,
,,,,,,,,,,,,,,,,,,,,,,,,,,,,,,,,,,,,,,,,,,,5fa948fdaab0ed07d3724eae,5ff3a3a5d1cd501d32523781,2021-01-05_00h27.33.548,Colour_Similarity_Experiment_v1,2020.1.2,Win32,60,5ff3a352adaa099f7659f8cc,,,,,,,,,,,,,,,,,,,,FF,,,,,,,,6,0.81539,,,,,,,,,,,,,,,,,,,,,,,,,,,,8,87.20001274,51.19996991,1,0,0,response1disk,4,126,1.600060296,5.599993646,1,0,0,rectangle,1.600060296,5.599993646,1,0,0,6,3,0,0.000655,1.600060296,5.599993646,1,0,0,0,125,125,88,1,,,,,,,,,,,,,,,,,,,,,
,,,,,,,,,,,,,,,,,,,,,,,,,,,,,,,,,,,,,,,,,,,5fa948fdaab0ed07d3724eae,5ff3a3a5d1cd501d32523781,2021-01-05_00h27.33.548,Colour_Similarity_Experiment_v1,2020.1.2,Win32,60,5ff3a352adaa099f7659f8cc,,,,,,,,,,,,,,,,,,,,FF,,,,,,,,4,1.66666,,,,,,,,,,,,,,,,,,,,,,,,,,,,8,48.80001217,-92.80000782,1,0,0,response3disk,6,127,4.000011504,-8.000006557,1,0,0,rectangle,4.000011504,-8.000006557,1,0,0,6,1,0,0.000445,4.000011504,-8.000006557,1,0,0,0,126,126,37,1,,,,,,,,,,,,,,,,,,,,,
,,,,,,,,,,,,,,,,,,,,,,,,,,,,,,,,,,,,,,,,,,,5fa948fdaab0ed07d3724eae,5ff3a3a5d1cd501d32523781,2021-01-05_00h27.33.548,Colour_Similarity_Experiment_v1,2020.1.2,Win32,60,5ff3a352adaa099f7659f8cc,,,,,,,,,,,,,,,,,,,,PF,,,,,,,,7,1.7501,,,,,,,,,,,,,,,,,,,,,,,,,,,,2,47.20001215,107.9999952,1,0,0,response1disk,6,128,-14.39993994,-1.600006461,1,0,0,rectangle,-14.39993994,-1.600006461,1,0,0,6,2,0,0.000875,-14.39993994,-1.600006461,1,0,0,0,127,127,113,1,,,,,,,,,,,,,,,,,,,,,
,,,,,,,,,,,,,,,,,,,,,,,,,,,,,,,,,,,,,,,,,,,5fa948fdaab0ed07d3724eae,5ff3a3a5d1cd501d32523781,2021-01-05_00h27.33.548,Colour_Similarity_Experiment_v1,2020.1.2,Win32,60,5ff3a352adaa099f7659f8cc,,,,,,,,,,,,,,,,,,,,PF,,,,,,,,7,0.9166,,,,,,,,,,,,,,,,,,,,,,,,,,,,6,62.40001237,94.39999497,1,0,0,response1disk,2,129,-6.399939823,7.999993682,1,0,0,rectangle,-6.399939823,7.999993682,1,0,0,6,0,0,0.00122,-6.399939823,7.999993682,1,0,0,0,128,128,130,1,,,,,,,,,,,,,,,,,,,,,
,,,,,,,,,,,,,,,,,,,,,,,,,,,,,,,,,,,,,,,,,,,5fa948fdaab0ed07d3724eae,5ff3a3a5d1cd501d32523781,2021-01-05_00h27.33.548,Colour_Similarity_Experiment_v1,2020.1.2,Win32,60,5ff3a352adaa099f7659f8cc,,,,,,,,,,,,,,,,,,,,PF,,,,,,,,7,1.219615,,,,,,,,,,,,,,,,,,,,,,,,,,,,5,51.20001221,99.99999505,1,0,0,response1disk,8,130,-8.799988687,3.19999361,1,0,0,rectangle,-8.799988687,3.19999361,1,0,0,6,2,0,0.00109,-8.799988687,3.19999361,1,0,0,0,129,129,149,1,,,,,,,,,,,,,,,,,,,,,
,,,,,,,,,,,,,,,,,,,,,,,,,,,,,,,,,,,,,,,,,,,5fa948fdaab0ed07d3724eae,5ff3a3a5d1cd501d32523781,2021-01-05_00h27.33.548,Colour_Similarity_Experiment_v1,2020.1.2,Win32,60,5ff3a352adaa099f7659f8cc,,,,,,,,,,,,,,,,,,,,FF,,,,,,,,7,1.200495,,,,,,,,,,,,,,,,,,,,,,,,,,,,2,47.20001215,82.39999479,1,0,0,response1disk,6,131,8.000011563,2.399993598,1,0,0,rectangle,8.000011563,2.399993598,1,0,0,6,5,0,0.001235,8.000011563,2.399993598,1,0,0,0,130,130,40,1,,,,,,,,,,,,,,,,,,,,,
,,,,,,,,,,,,,,,,,,,,,,,,,,,,,,,,,,,,,,,,,,,5fa948fdaab0ed07d3724eae,5ff3a3a5d1cd501d32523781,2021-01-05_00h27.33.548,Colour_Similarity_Experiment_v1,2020.1.2,Win32,60,5ff3a352adaa099f7659f8cc,,,,,,,,,,,,,,,,,,,,FF,,,,,,,,7,1.001555,,,,,,,,,,,,,,,,,,,,,,,,,,,,6,42.40001208,81.59999478,1,0,0,response1disk,9,132,18.40001172,14.39999378,1,0,0,rectangle,51.20001221,-100.0000079,1,0,0,4,4,1,1.383785,1.14441E-05,-1.600006461,1,0,0,0,131,131,160,1,response3disk_3,rectangle,,,,,,,,,,,,,,,,,,,
,,,,,,,,,,,,,,,,,,,,,,,,,,,,,,,,,,,,,,,,,,,5fa948fdaab0ed07d3724eae,5ff3a3a5d1cd501d32523781,2021-01-05_00h27.33.548,Colour_Similarity_Experiment_v1,2020.1.2,Win32,60,5ff3a352adaa099f7659f8cc,,,,,,,,,,,,,,,,,,,,PF,,,,,,,,3,4.183245,,,,,,,,,,,,,,,,,,,,,,,,,,,,6,-22.39994006,-90.40000778,1,0,0,response5disk,4,133,-10.39993988,-7.200006545,1,0,0,rectangle,-10.39993988,-7.200006545,1,0,0,4,0,0,0.0007,-10.39993988,-7.200006545,1,0,0,0,132,132,33,1,,,,,,,,,,,,,,,,,,,,,
,,,,,,,,,,,,,,,,,,,,,,,,,,,,,,,,,,,,,,,,,,,5fa948fdaab0ed07d3724eae,5ff3a3a5d1cd501d32523781,2021-01-05_00h27.33.548,Colour_Similarity_Experiment_v1,2020.1.2,Win32,60,5ff3a352adaa099f7659f8cc,,,,,,,,,,,,,,,,,,,,PF,,,,,,,,0,1.06798,,,,,,,,,,,,,,,,,,,,,,,,,,,,7,-38.3999403,105.5999951,1,0,0,response7disk,7,134,6.400011539,-6.400006533,1,0,0,rectangle,6.400011539,-6.400006533,1,0,0,4,0,0,0.000635,6.400011539,-6.400006533,1,0,0,0,133,133,51,1,,,,,,,,,,,,,,,,,,,,,
,,,,,,,,,,,,,,,,,,,,,,,,,,,,,,,,,,,,,,,,,,,5fa948fdaab0ed07d3724eae,5ff3a3a5d1cd501d32523781,2021-01-05_00h27.33.548,Colour_Similarity_Experiment_v1,2020.1.2,Win32,60,5ff3a352adaa099f7659f8cc,,,,,,,,,,,,,,,,,,,,PF,,,,,,,,3,1.58256,,,,,,,,,,,,,,,,,,,,,,,,,,,,1,-47.99998927,-90.40000778,1,0,0,response5disk,8,135,-5.599988639,-0.800006449,1,0,0,rectangle,-5.599988639,-0.800006449,1,0,0,4,4,0,0.00109,-5.599988639,-0.800006449,1,0,0,0,134,134,65,1,,,,,,,,,,,,,,,,,,,,,
,,,,,,,,,,,,,,,,,,,,,,,,,,,,,,,,,,,,,,,,,,,5fa948fdaab0ed07d3724eae,5ff3a3a5d1cd501d32523781,2021-01-05_00h27.33.548,Colour_Similarity_Experiment_v1,2020.1.2,Win32,60,5ff3a352adaa099f7659f8cc,,,,,,,,,,,,,,,,,,,,PF,,,,,,,,0,0.983995,,,,,,,,,,,,,,,,,,,,,,,,,,,,5,-34.39994024,87.19997045,1,0,0,response7disk,5,136,-13.59998876,8.799993694,1,0,0,rectangle,-13.59998876,8.799993694,1,0,0,4,4,0,0.000545,-13.59998876,8.799993694,1,0,0,0,135,135,94,1,,,,,,,,,,,,,,,,,,,,,
,,,,,,,,,,,,,,,,,,,,,,,,,,,,,,,,,,,,,,,,,,,5fa948fdaab0ed07d3724eae,5ff3a3a5d1cd501d32523781,2021-01-05_00h27.33.548,Colour_Similarity_Experiment_v1,2020.1.2,Win32,60,5ff3a352adaa099f7659f8cc,,,,,,,,,,,,,,,,,,,,FF,,,,,,,,5,1.26652,,,,,,,,,,,,,,,,,,,,,,,,,,,,3,84.80001271,-48.00000715,1,0,0,response3disk,6,137,12.80001163,-6.400006533,1,0,0,rectangle,12.80001163,-6.400006533,1,0,0,4,4,0,0.00051,12.80001163,-6.400006533,1,0,0,0,136,136,95,1,,,,,,,,,,,,,,,,,,,,,
,,,,,,,,,,,,,,,,,,,,,,,,,,,,,,,,,,,,,,,,,,,5fa948fdaab0ed07d3724eae,5ff3a3a5d1cd501d32523781,2021-01-05_00h27.33.548,Colour_Similarity_Experiment_v1,2020.1.2,Win32,60,5ff3a352adaa099f7659f8cc,,,,,,,,,,,,,,,,,,,,FF,,,,,,,,1,1.283795,,,,,,,,,,,,,,,,,,,,,,,,,,,,3,-92.79998994,50.39999431,1,0,0,response7disk,5,138,6.400011539,-0.800006449,1,0,0,rectangle,6.400011539,-0.800006449,1,0,0,4,4,0,0.000515,6.400011539,-0.800006449,1,0,0,0,137,137,101,1,,,,,,,,,,,,,,,,,,,,,
,,,,,,,,,,,,,,,,,,,,,,,,,,,,,,,,,,,,,,,,,,,5fa948fdaab0ed07d3724eae,5ff3a3a5d1cd501d32523781,2021-01-05_00h27.33.548,Colour_Similarity_Experiment_v1,2020.1.2,Win32,60,5ff3a352adaa099f7659f8cc,,,,,,,,,,,,,,,,,,,,FF,,,,,,,,3,1.266775,,,,,,,,,,,,,,,,,,,,,,,,,,,,8,-51.99998933,-85.60005654,1,0,0,response5disk,9,139,4.800011516,-5.600006521,1,0,0,rectangle,4.800011516,-5.600006521,1,0,0,4,2,0,0.000665,4.800011516,-5.600006521,1,0,0,0,138,138,105,1,,,,,,,,,,,,,,,,,,,,,
,,,,,,,,,,,,,,,,,,,,,,,,,,,,,,,,,,,,,,,,,,,5fa948fdaab0ed07d3724eae,5ff3a3a5d1cd501d32523781,2021-01-05_00h27.33.548,Colour_Similarity_Experiment_v1,2020.1.2,Win32,60,5ff3a352adaa099f7659f8cc,,,,,,,,,,,,,,,,,,,,PF,,,,,,,,2,1.083185,,,,,,,,,,,,,,,,,,,,,,,,,,,,1,-64.79998952,-44.00000709,1,0,0,response5disk,2,140,5.600060356,-4.000006497,1,0,0,rectangle,5.600060356,-4.000006497,1,0,0,4,1,0,0.00059,5.600060356,-4.000006497,1,0,0,0,139,139,24,1,,,,,,,,,,,,,,,,,,,,,
,,,,,,,,,,,,,,,,,,,,,,,,,,,,,,,,,,,,,,,,,,,5fa948fdaab0ed07d3724eae,5ff3a3a5d1cd501d32523781,2021-01-05_00h27.33.548,Colour_Similarity_Experiment_v1,2020.1.2,Win32,60,5ff3a352adaa099f7659f8cc,,,,,,,,,,,,,,,,,,,,PF,,,,,,,,0,1.033255,,,,,,,,,,,,,,,,,,,,,,,,,,,,4,-48.79998928,87.19997045,1,0,0,response7disk,4,141,4.800011516,-0.800006449,1,0,0,rectangle,4.800011516,-0.800006449,1,0,0,4,3,0,0.00083,4.800011516,-0.800006449,1,0,0,0,140,140,70,1,,,,,,,,,,,,,,,,,,,,,
,,,,,,,,,,,,,,,,,,,,,,,,,,,,,,,,,,,,,,,,,,,5fa948fdaab0ed07d3724eae,5ff3a3a5d1cd501d32523781,2021-01-05_00h27.33.548,Colour_Similarity_Experiment_v1,2020.1.2,Win32,60,5ff3a352adaa099f7659f8cc,,,,,,,,,,,,,,,,,,,,PF,,,,,,,,5,1.33318,,,,,,,,,,,,,,,,,,,,,,,,,,,,3,93.60001284,-44.8000071,1,0,0,response3disk,7,142,12.80001163,-2.400006473,1,0,0,rectangle,12.80001163,-2.400006473,1,0,0,4,3,0,0.001435,12.80001163,-2.400006473,1,0,0,0,141,141,41,1,,,,,,,,,,,,,,,,,,,,,
,,,,,,,,,,,,,,,,,,,,,,,,,,,,,,,,,,,,,,,,,,,5fa948fdaab0ed07d3724eae,5ff3a3a5d1cd501d32523781,2021-01-05_00h27.33.548,Colour_Similarity_Experiment_v1,2020.1.2,Win32,60,5ff3a352adaa099f7659f8cc,,,,,,,,,,,,,,,,,,,,PF,,,,,,,,7,1.88303,,,,,,,,,,,,,,,,,,,,,,,,,,,,5,52.80001223,79.19997033,1,0,0,response1disk,1,143,10.4000116,5.599993646,1,0,0,rectangle,106.400013,36.79999411,1,0,0,6,6,1,2.166155,14.40001166,7.19999367,1,0,0,0,142,142,159,1,response1disk_3,rectangle,,,,,,,,,,,,,,,,,,,
,,,,,,,,,,,,,,,,,,,,,,,,,,,,,,,,,,,,,,,,,,,5fa948fdaab0ed07d3724eae,5ff3a3a5d1cd501d32523781,2021-01-05_00h27.33.548,Colour_Similarity_Experiment_v1,2020.1.2,Win32,60,5ff3a352adaa099f7659f8cc,,,,,,,,,,,,,,,,,,,,FF,,,,,,,,0,1.69975,,,,,,,,,,,,,,,,,,,,,,,,,,,,5,-41.59998918,99.19997063,1,0,0,response7disk,5,144,9.600060415,1.599993587,1,0,0,rectangle,9.600060415,1.599993587,1,0,0,6,2,0,0.000615,9.600060415,1.599993587,1,0,0,0,143,143,19,1,,,,,,,,,,,,,,,,,,,,,
,,,,,,,,,,,,,,,,,,,,,,,,,,,,,,,,,,,,,,,,,,,5fa948fdaab0ed07d3724eae,5ff3a3a5d1cd501d32523781,2021-01-05_00h27.33.548,Colour_Similarity_Experiment_v1,2020.1.2,Win32,60,5ff3a352adaa099f7659f8cc,,,,,,,,,,,,,,,,,,,,FF,,,,,,,,4,7.267055,,,,,,,,,,,,,,,,,,,,,,,,,,,,5,48.00001216,-69.60000747,1,0,0,response3disk,7,145,13.60006047,-2.400006473,1,0,0,rectangle,13.60006047,-2.400006473,1,0,0,6,1,0,0.000815,13.60006047,-2.400006473,1,0,0,0,144,144,7,1,,,,,,,,,,,,,,,,,,,,,
,,,,,,,,,,,,,,,,,,,,,,,,,,,,,,,,,,,,,,,,,,,5fa948fdaab0ed07d3724eae,5ff3a3a5d1cd501d32523781,2021-01-05_00h27.33.548,Colour_Similarity_Experiment_v1,2020.1.2,Win32,60,5ff3a352adaa099f7659f8cc,,,,,,,,,,,,,,,,,,,,FF,,,,,,,,7,1.08294,,,,,,,,,,,,,,,,,,,,,,,,,,,,6,71.20001251,87.99999487,1,0,0,response1disk,1,146,23.20001179,-0.800006449,1,0,0,rectangle,23.20001179,-0.800006449,1,0,0,6,5,0,0.0007,23.20001179,-0.800006449,1,0,0,0,145,145,5,1,,,,,,,,,,,,,,,,,,,,,
,,,,,,,,,,,,,,,,,,,,,,,,,,,,,,,,,,,,,,,,,,,5fa948fdaab0ed07d3724eae,5ff3a3a5d1cd501d32523781,2021-01-05_00h27.33.548,Colour_Similarity_Experiment_v1,2020.1.2,Win32,60,5ff3a352adaa099f7659f8cc,,,,,,,,,,,,,,,,,,,,FF,,,,,,,,5,1.48351,,,,,,,,,,,,,,,,,,,,,,,,,,,,8,81.60001266,-33.60000694,1,0,0,response3disk,2,147,12.00001162,-3.200006485,1,0,0,rectangle,12.00001162,-3.200006485,1,0,0,6,6,0,0.00065,12.00001162,-3.200006485,1,0,0,0,146,146,22,1,,,,,,,,,,,,,,,,,,,,,
,,,,,,,,,,,,,,,,,,,,,,,,,,,,,,,,,,,,,,,,,,,5fa948fdaab0ed07d3724eae,5ff3a3a5d1cd501d32523781,2021-01-05_00h27.33.548,Colour_Similarity_Experiment_v1,2020.1.2,Win32,60,5ff3a352adaa099f7659f8cc,,,,,,,,,,,,,,,,,,,,PF,,,,,,,,7,0.833125,,,,,,,,,,,,,,,,,,,,,,,,,,,,4,37.60006083,85.59999484,1,0,0,response1disk,1,148,9.600060415,1.599993587,1,0,0,rectangle,9.600060415,1.599993587,1,0,0,6,7,0,0.000695,9.600060415,1.599993587,1,0,0,0,147,147,115,1,,,,,,,,,,,,,,,,,,,,,
,,,,,,,,,,,,,,,,,,,,,,,,,,,,,,,,,,,,,,,,,,,5fa948fdaab0ed07d3724eae,5ff3a3a5d1cd501d32523781,2021-01-05_00h27.33.548,Colour_Similarity_Experiment_v1,2020.1.2,Win32,60,5ff3a352adaa099f7659f8cc,,,,,,,,,,,,,,,,,,,,FF,,,,,,,,2,1.44946,,,,,,,,,,,,,,,,,,,,,,,,,,,,6,-95.99998999,-32.00000691,1,0,0,response5disk,7,149,-2.399939764,-0.800006449,1,0,0,rectangle,-2.399939764,-0.800006449,1,0,0,6,2,0,0.00154,-2.399939764,-0.800006449,1,0,0,0,148,148,18,1,,,,,,,,,,,,,,,,,,,,,
,,,,,,,,,,,,,,,,,,,,,,,,,,,,,,,,,,,,,,,,,,,5fa948fdaab0ed07d3724eae,5ff3a3a5d1cd501d32523781,2021-01-05_00h27.33.548,Colour_Similarity_Experiment_v1,2020.1.2,Win32,60,5ff3a352adaa099f7659f8cc,,,,,,,,,,,,,,,,,,,,FF,,,,,,,,7,1.133275,,,,,,,,,,,,,,,,,,,,,,,,,,,,1,41.60006089,67.19997015,1,0,0,response1disk,6,150,10.4000116,1.599993587,1,0,0,rectangle,10.4000116,1.599993587,1,0,0,6,5,0,0.00132,10.4000116,1.599993587,1,0,0,0,149,149,58,1,,,,,,,,,,,,,,,,,,,,,
,,,,,,,,,,,,,,,,,,,,,,,,,,,,,,,,,,,,,,,,,,,5fa948fdaab0ed07d3724eae,5ff3a3a5d1cd501d32523781,2021-01-05_00h27.33.548,Colour_Similarity_Experiment_v1,2020.1.2,Win32,60,5ff3a352adaa099f7659f8cc,,,,,,,,,,,,,,,,,,,,FF,,,,,,,,6,1.436645,,,,,,,,,,,,,,,,,,,,,,,,,,,,2,76.00001258,31.99999404,1,0,0,response1disk,8,151,10.4000116,0.799993575,1,0,0,rectangle,10.4000116,0.799993575,1,0,0,6,2,0,0.00059,10.4000116,0.799993575,1,0,0,0,150,150,62,1,,,,,,,,,,,,,,,,,,,,,
,,,,,,,,,,,,,,,,,,,,,,,,,,,,,,,,,,,,,,,,,,,5fa948fdaab0ed07d3724eae,5ff3a3a5d1cd501d32523781,2021-01-05_00h27.33.548,Colour_Similarity_Experiment_v1,2020.1.2,Win32,60,5ff3a352adaa099f7659f8cc,,,,,,,,,,,,,,,,,,,,FF,,,,,,,,7,1.11624,,,,,,,,,,,,,,,,,,,,,,,,,,,,1,56.80001229,105.5999951,1,0,0,response1disk,3,152,14.40001166,-2.400006473,1,0,0,rectangle,14.40001166,-2.400006473,1,0,0,6,4,0,0.000675,14.40001166,-2.400006473,1,0,0,0,151,151,99,1,,,,,,,,,,,,,,,,,,,,,
,,,,,,,,,,,,,,,,,,,,,,,,,,,,,,,,,,,,,,,,,,,5fa948fdaab0ed07d3724eae,5ff3a3a5d1cd501d32523781,2021-01-05_00h27.33.548,Colour_Similarity_Experiment_v1,2020.1.2,Win32,60,5ff3a352adaa099f7659f8cc,,,,,,,,,,,,,,,,,,,,PF,,,,,,,,5,1.616035,,,,,,,,,,,,,,,,,,,,,,,,,,,,6,69.60001248,-33.60000694,1,0,0,response3disk,8,153,10.4000116,3.999993622,1,0,0,rectangle,10.4000116,3.999993622,1,0,0,6,6,0,0.00052,10.4000116,3.999993622,1,0,0,0,152,152,64,1,,,,,,,,,,,,,,,,,,,,,
,,,,,,,,,,,,,,,,,,,,,,,,,,,,,,,,,,,,,,,,,,,5fa948fdaab0ed07d3724eae,5ff3a3a5d1cd501d32523781,2021-01-05_00h27.33.548,Colour_Similarity_Experiment_v1,2020.1.2,Win32,60,5ff3a352adaa099f7659f8cc,,,,,,,,,,,,,,,,,,,,FF,,,,,,,,4,1.882855,,,,,,,,,,,,,,,,,,,,,,,,,,,,7,45.60006095,-59.20000732,1,0,0,response3disk,3,154,12.00001162,2.399993598,1,0,0,rectangle,12.00001162,2.399993598,1,0,0,6,5,0,0.00046,12.00001162,2.399993598,1,0,0,0,153,153,73,1,,,,,,,,,,,,,,,,,,,,,
,,,,,,,,,,,,,,,,,,,,,,,,,,,,,,,,,,,,,,,,,,,5fa948fdaab0ed07d3724eae,5ff3a3a5d1cd501d32523781,2021-01-05_00h27.33.548,Colour_Similarity_Experiment_v1,2020.1.2,Win32,60,5ff3a352adaa099f7659f8cc,,,,,,,,,,,,,,,,,,,,PF,,,,,,,,4,1.050485,,,,,,,,,,,,,,,,,,,,,,,,,,,,7,46.40001214,-70.40000749,1,0,0,response3disk,3,155,19.20001173,-2.400006473,1,0,0,rectangle,19.20001173,-2.400006473,1,0,0,6,2,0,0.00056,19.20001173,-2.400006473,1,0,0,0,154,154,81,1,,,,,,,,,,,,,,,,,,,,,
,,,,,,,,,,,,,,,,,,,,,,,,,,,,,,,,,,,,,,,,,,,5fa948fdaab0ed07d3724eae,5ff3a3a5d1cd501d32523781,2021-01-05_00h27.33.548,Colour_Similarity_Experiment_v1,2020.1.2,Win32,60,5ff3a352adaa099f7659f8cc,,,,,,,,,,,,,,,,,,,,FF,,,,,,,,5,2.150015,,,,,,,,,,,,,,,,,,,,,,,,,,,,3,53.60001224,-31.2000069,1,0,0,response3disk,9,156,19.20001173,-5.600006521,1,0,0,rectangle,19.20001173,-5.600006521,1,0,0,6,3,0,0.00058,19.20001173,-5.600006521,1,0,0,0,155,155,143,1,,,,,,,,,,,,,,,,,,,,,
,,,,,,,,,,,,,,,,,,,,,,,,,,,,,,,,,,,,,,,,,,,5fa948fdaab0ed07d3724eae,5ff3a3a5d1cd501d32523781,2021-01-05_00h27.33.548,Colour_Similarity_Experiment_v1,2020.1.2,Win32,60,5ff3a352adaa099f7659f8cc,,,,,,,,,,,,,,,,,,,,FF,,,,,,,,5,1.18657,,,,,,,,,,,,,,,,,,,,,,,,,,,,9,55.20001227,-36.80000699,1,0,0,response3disk,4,157,20.00001174,-10.40000659,1,0,0,rectangle,20.00001174,-10.40000659,1,0,0,6,1,0,0.000635,20.00001174,-10.40000659,1,0,0,0,156,156,60,1,,,,,,,,,,,,,,,,,,,,,
,,,,,,,,,,,,,,,,,,,,,,,,,,,,,,,,,,,,,,,,,,,5fa948fdaab0ed07d3724eae,5ff3a3a5d1cd501d32523781,2021-01-05_00h27.33.548,Colour_Similarity_Experiment_v1,2020.1.2,Win32,60,5ff3a352adaa099f7659f8cc,,,,,,,,,,,,,,,,,,,,FF,,,,,,,,6,3.182975,,,,,,,,,,,,,,,,,,,,,,,,,,,,9,109.6000131,35.9999941,1,0,0,response1disk,7,158,3.200011492,-5.600006521,1,0,0,rectangle,3.200011492,-5.600006521,1,0,0,6,2,0,0.0006,3.200011492,-5.600006521,1,0,0,0,157,157,100,1,,,,,,,,,,,,,,,,,,,,,
,,,,,,,,,,,,,,,,,,,,,,,,,,,,,,,,,,,,,,,,,,,5fa948fdaab0ed07d3724eae,5ff3a3a5d1cd501d32523781,2021-01-05_00h27.33.548,Colour_Similarity_Experiment_v1,2020.1.2,Win32,60,5ff3a352adaa099f7659f8cc,,,,,,,,,,,,,,,,,,,,FF,,,,,,,,5,1.41412,,,,,,,,,,,,,,,,,,,,,,,,,,,,3,81.60001266,-47.20000714,1,0,0,response3disk,2,159,11.20001161,-4.000006497,1,0,0,rectangle,11.20001161,-4.000006497,1,0,0,6,0,0,0.00089,11.20001161,-4.000006497,1,0,0,0,158,158,93,1,,,,,,,,,,,,,,,,,,,,,
,,,,,,,,,,,,,,,,,,,,,,,,,,,,,,,,,,,,,,,,,,,5fa948fdaab0ed07d3724eae,5ff3a3a5d1cd501d32523781,2021-01-05_00h27.33.548,Colour_Similarity_Experiment_v1,2020.1.2,Win32,60,5ff3a352adaa099f7659f8cc,,,,,,,,,,,,,,,,,,,,PF,,,,,,,,3,6.984675,,,,,,,,,,,,,,,,,,,,,,,,,,,,2,-25.59998894,-56.80000728,1,0,0,response5disk,8,160,-10.39993988,3.19999361,1,0,0,rectangle,-10.39993988,3.19999361,1,0,0,6,2,0,0.000925,-10.39993988,3.19999361,1,0,0,0,159,159,52,1,,,,,,,,,,,,,,,,,,,,,
,,,,,,,,,,,,,,,,,,,,,,,,,,,,,,,,,,,,,,,,,,,5fa948fdaab0ed07d3724eae,5ff3a3a5d1cd501d32523781,2021-01-05_00h27.33.548,Colour_Similarity_Experiment_v1,2020.1.2,Win32,60,5ff3a352adaa099f7659f8cc,,,,,,,,,,,,,,,,,,,,PF,,,,,,,,6,1.365485,,,,,,,,,,,,,,,,,,,,,,,,,,,,6,80.80001265,55.19996997,1,0,0,response1disk,3,161,13.60006047,10.39999372,1,0,0,rectangle,13.60006047,10.39999372,1,0,0,6,1,0,0.00063,13.60006047,10.39999372,1,0,0,0,160,160,26,1,,,,,,,,,,,,,,,,,,,,,
,,,,,,,,,,,,,,,,,,,,,,,,,,,,,,,,,,,,,,,,,,,5fa948fdaab0ed07d3724eae,5ff3a3a5d1cd501d32523781,2021-01-05_00h27.33.548,Colour_Similarity_Experiment_v1,2020.1.2,Win32,60,5ff3a352adaa099f7659f8cc,,,,,,,,,,,,,,,,,,,,PF,,,,,,,,1,1.23319,,,,,,,,,,,,,,,,,,,,,,,,,,,,6,-91.99998993,35.19996967,1,0,0,response7disk,7,162,-18.39994,3.19999361,1,0,0,rectangle,-18.39994,3.19999361,1,0,0,6,7,0,0.00076,-18.39994,3.19999361,1,0,0,0,161,161,50,1,,,,,,,,,,,,,,,,,,,,,
,,,,,,,,,,,,,,,,,,,,,,,,,,,,,,,,,,,,,,,,,,,5fa948fdaab0ed07d3724eae,5ff3a3a5d1cd501d32523781,2021-01-05_00h27.33.548,Colour_Similarity_Experiment_v1,2020.1.2,Win32,60,5ff3a352adaa099f7659f8cc,,,,,,,,,,,,,,,,,,,,,,,,,,,,,,,,,,,,,,,,,,,,,,,,,,,,,,,,,,,,,,,,,,,,,,,,,,,,,,,,,,,,,,,,,,,,,0,0,0,0,1,,,,,,,,,,,,,,
,,,,,,,,,,,,,,,,,,,,,,,,,,,,,,,,,,,,,,,,,,,5fa948fdaab0ed07d3724eae,5ff3a3a5d1cd501d32523781,2021-01-05_00h27.33.548,Colour_Similarity_Experiment_v1,2020.1.2,Win32,60,5ff3a352adaa099f7659f8cc,,,,,,,,,,,,,,,,,,,,FF,,,,,,,,6,1.850015,,,,,,,,,,,,,,,,,,,,,,,,,,,,3,96.00001287,46.39999425,1,0,0,response1disk,8,163,14.40001166,9.599993706,1,0,0,rectangle,14.40001166,9.599993706,1,0,0,6,5,0,0.00045,14.40001166,9.599993706,1,0,0,0,0,0,44,1,,,,,,,,,,,,,,,,,,,,,
,,,,,,,,,,,,,,,,,,,,,,,,,,,,,,,,,,,,,,,,,,,5fa948fdaab0ed07d3724eae,5ff3a3a5d1cd501d32523781,2021-01-05_00h27.33.548,Colour_Similarity_Experiment_v1,2020.1.2,Win32,60,5ff3a352adaa099f7659f8cc,,,,,,,,,,,,,,,,,,,,PF,,,,,,,,6,1.616595,,,,,,,,,,,,,,,,,,,,,,,,,,,,4,81.60001266,53.59999436,1,0,0,response1disk,7,164,37.60006083,5.599993646,1,0,0,rectangle,37.60006083,5.599993646,1,0,0,6,1,0,0.000565,37.60006083,5.599993646,1,0,0,0,1,1,38,1,,,,,,,,,,,,,,,,,,,,,
,,,,,,,,,,,,,,,,,,,,,,,,,,,,,,,,,,,,,,,,,,,5fa948fdaab0ed07d3724eae,5ff3a3a5d1cd501d32523781,2021-01-05_00h27.33.548,Colour_Similarity_Experiment_v1,2020.1.2,Win32,60,5ff3a352adaa099f7659f8cc,,,,,,,,,,,,,,,,,,,,PF,,,,,,,,3,6.36737,,,,,,,,,,,,,,,,,,,,,,,,,,,,1,-63.99998951,-76.00000757,1,0,0,response5disk,2,165,-24.79998893,3.999993622,1,0,0,rectangle,-24.79998893,3.999993622,1,0,0,6,1,0,0.000875,-24.79998893,3.999993622,1,0,0,0,2,2,24,1,,,,,,,,,,,,,,,,,,,,,
,,,,,,,,,,,,,,,,,,,,,,,,,,,,,,,,,,,,,,,,,,,5fa948fdaab0ed07d3724eae,5ff3a3a5d1cd501d32523781,2021-01-05_00h27.33.548,Colour_Similarity_Experiment_v1,2020.1.2,Win32,60,5ff3a352adaa099f7659f8cc,,,,,,,,,,,,,,,,,,,,PF,,,,,,,,2,1.51667,,,,,,,,,,,,,,,,,,,,,,,,,,,,9,-69.59998959,-54.40000725,1,0,0,response5disk,8,166,-11.19998872,-8.000006557,1,0,0,rectangle,-11.19998872,-8.000006557,1,0,0,6,7,0,0.0006,-11.19998872,-8.000006557,1,0,0,0,3,3,67,1,,,,,,,,,,,,,,,,,,,,,
,,,,,,,,,,,,,,,,,,,,,,,,,,,,,,,,,,,,,,,,,,,5fa948fdaab0ed07d3724eae,5ff3a3a5d1cd501d32523781,2021-01-05_00h27.33.548,Colour_Similarity_Experiment_v1,2020.1.2,Win32,60,5ff3a352adaa099f7659f8cc,,,,,,,,,,,,,,,,,,,,PF,,,,,,,,0,0.98341,,,,,,,,,,,,,,,,,,,,,,,,,,,,8,-54.39994054,107.9999952,1,0,0,response7disk,8,167,-3.999988616,6.399993658,1,0,0,rectangle,-3.999988616,6.399993658,1,0,0,6,4,0,0.00135,-3.999988616,6.399993658,1,0,0,0,4,4,153,1,,,,,,,,,,,,,,,,,,,,,
,,,,,,,,,,,,,,,,,,,,,,,,,,,,,,,,,,,,,,,,,,,5fa948fdaab0ed07d3724eae,5ff3a3a5d1cd501d32523781,2021-01-05_00h27.33.548,Colour_Similarity_Experiment_v1,2020.1.2,Win32,60,5ff3a352adaa099f7659f8cc,,,,,,,,,,,,,,,,,,,,PF,,,,,,,,0,3.38338,,,,,,,,,,,,,,,,,,,,,,,,,,,,2,-32.79998904,99.99999505,1,0,0,response7disk,2,168,-9.599988699,11.99999374,1,0,0,rectangle,-9.599988699,11.99999374,1,0,0,6,1,0,0.001435,-9.599988699,11.99999374,1,0,0,0,5,5,14,1,,,,,,,,,,,,,,,,,,,,,
,,,,,,,,,,,,,,,,,,,,,,,,,,,,,,,,,,,,,,,,,,,5fa948fdaab0ed07d3724eae,5ff3a3a5d1cd501d32523781,2021-01-05_00h27.33.548,Colour_Similarity_Experiment_v1,2020.1.2,Win32,60,5ff3a352adaa099f7659f8cc,,,,,,,,,,,,,,,,,,,,FF,,,,,,,,6,1.649965,,,,,,,,,,,,,,,,,,,,,,,,,,,,3,96.80001289,45.59999424,1,0,0,response1disk,9,169,3.200011492,11.19999373,1,0,0,rectangle,3.200011492,11.19999373,1,0,0,6,4,0,0.00064,3.200011492,11.19999373,1,0,0,0,6,6,143,1,,,,,,,,,,,,,,,,,,,,,
,,,,,,,,,,,,,,,,,,,,,,,,,,,,,,,,,,,,,,,,,,,5fa948fdaab0ed07d3724eae,5ff3a3a5d1cd501d32523781,2021-01-05_00h27.33.548,Colour_Similarity_Experiment_v1,2020.1.2,Win32,60,5ff3a352adaa099f7659f8cc,,,,,,,,,,,,,,,,,,,,FF,,,,,,,,3,1.51672,,,,,,,,,,,,,,,,,,,,,,,,,,,,1,-45.59998924,-82.40000767,1,0,0,response5disk,2,170,8.800011575,7.999993682,1,0,0,rectangle,8.800011575,7.999993682,1,0,0,6,4,0,0.00059,8.800011575,7.999993682,1,0,0,0,7,7,2,1,,,,,,,,,,,,,,,,,,,,,
,,,,,,,,,,,,,,,,,,,,,,,,,,,,,,,,,,,,,,,,,,,5fa948fdaab0ed07d3724eae,5ff3a3a5d1cd501d32523781,2021-01-05_00h27.33.548,Colour_Similarity_Experiment_v1,2020.1.2,Win32,60,5ff3a352adaa099f7659f8cc,,,,,,,,,,,,,,,,,,,,FF,,,,,,,,7,1.55003,,,,,,,,,,,,,,,,,,,,,,,,,,,,8,45.60006095,120.7999954,1,0,0,response1disk,3,171,12.80001163,9.599993706,1,0,0,rectangle,12.80001163,9.599993706,1,0,0,6,1,0,0.00105,12.80001163,9.599993706,1,0,0,0,8,8,154,1,,,,,,,,,,,,,,,,,,,,,
,,,,,,,,,,,,,,,,,,,,,,,,,,,,,,,,,,,,,,,,,,,5fa948fdaab0ed07d3724eae,5ff3a3a5d1cd501d32523781,2021-01-05_00h27.33.548,Colour_Similarity_Experiment_v1,2020.1.2,Win32,60,5ff3a352adaa099f7659f8cc,,,,,,,,,,,,,,,,,,,,PF,,,,,,,,1,1.06655,,,,,,,,,,,,,,,,,,,,,,,,,,,,3,-91.19998991,42.39999419,1,0,0,response7disk,4,172,-1.59998858,-4.800006509,1,0,0,rectangle,-1.59998858,-4.800006509,1,0,0,6,6,0,0.000555,-1.59998858,-4.800006509,1,0,0,0,9,9,30,1,,,,,,,,,,,,,,,,,,,,,
,,,,,,,,,,,,,,,,,,,,,,,,,,,,,,,,,,,,,,,,,,,5fa948fdaab0ed07d3724eae,5ff3a3a5d1cd501d32523781,2021-01-05_00h27.33.548,Colour_Similarity_Experiment_v1,2020.1.2,Win32,60,5ff3a352adaa099f7659f8cc,,,,,,,,,,,,,,,,,,,,FF,,,,,,,,7,1.100025,,,,,,,,,,,,,,,,,,,,,,,,,,,,5,55.20001227,73.59999466,1,0,0,response1disk,8,173,27.20001185,-8.800006568,1,0,0,rectangle,27.20001185,-8.800006568,1,0,0,6,2,0,0.00063,27.20001185,-8.800006568,1,0,0,0,10,10,16,1,,,,,,,,,,,,,,,,,,,,,
,,,,,,,,,,,,,,,,,,,,,,,,,,,,,,,,,,,,,,,,,,,5fa948fdaab0ed07d3724eae,5ff3a3a5d1cd501d32523781,2021-01-05_00h27.33.548,Colour_Similarity_Experiment_v1,2020.1.2,Win32,60,5ff3a352adaa099f7659f8cc,,,,,,,,,,,,,,,,,,,,FF,,,,,,,,0,1.116625,,,,,,,,,,,,,,,,,,,,,,,,,,,,5,-43.99998921,95.19997057,1,0,0,response7disk,5,174,-5.599988639,4.799993634,1,0,0,rectangle,-5.599988639,4.799993634,1,0,0,6,4,0,0.0005,-5.599988639,4.799993634,1,0,0,0,11,11,19,1,,,,,,,,,,,,,,,,,,,,,
,,,,,,,,,,,,,,,,,,,,,,,,,,,,,,,,,,,,,,,,,,,5fa948fdaab0ed07d3724eae,5ff3a3a5d1cd501d32523781,2021-01-05_00h27.33.548,Colour_Similarity_Experiment_v1,2020.1.2,Win32,60,5ff3a352adaa099f7659f8cc,,,,,,,,,,,,,,,,,,,,PF,,,,,,,,1,1.45009,,,,,,,,,,,,,,,,,,,,,,,,,,,,2,-89.59998989,27.19996955,1,0,0,response7disk,1,175,0.800011456,0.799993575,1,0,0,rectangle,0.800011456,0.799993575,1,0,0,6,0,0,0.000925,0.800011456,0.799993575,1,0,0,0,12,12,9,1,,,,,,,,,,,,,,,,,,,,,
,,,,,,,,,,,,,,,,,,,,,,,,,,,,,,,,,,,,,,,,,,,5fa948fdaab0ed07d3724eae,5ff3a3a5d1cd501d32523781,2021-01-05_00h27.33.548,Colour_Similarity_Experiment_v1,2020.1.2,Win32,60,5ff3a352adaa099f7659f8cc,,,,,,,,,,,,,,,,,,,,FF,,,,,,,,7,2.48339,,,,,,,,,,,,,,,,,,,,,,,,,,,,4,28.00001186,93.59999496,1,0,0,response1disk,2,176,5.600060356,-11.2000066,1,0,0,rectangle,5.600060356,-11.2000066,1,0,0,6,1,0,0.001505,5.600060356,-11.2000066,1,0,0,0,13,13,13,1,,,,,,,,,,,,,,,,,,,,,
,,,,,,,,,,,,,,,,,,,,,,,,,,,,,,,,,,,,,,,,,,,5fa948fdaab0ed07d3724eae,5ff3a3a5d1cd501d32523781,2021-01-05_00h27.33.548,Colour_Similarity_Experiment_v1,2020.1.2,Win32,60,5ff3a352adaa099f7659f8cc,,,,,,,,,,,,,,,,,,,,FF,,,,,,,,3,1.533415,,,,,,,,,,,,,,,,,,,,,,,,,,,,1,-53.59998935,-88.80000776,1,0,0,response5disk,9,177,-11.99998873,3.999993622,1,0,0,rectangle,-11.99998873,3.999993622,1,0,0,6,5,0,0.00061,-11.99998873,3.999993622,1,0,0,0,14,14,123,1,,,,,,,,,,,,,,,,,,,,,
,,,,,,,,,,,,,,,,,,,,,,,,,,,,,,,,,,,,,,,,,,,5fa948fdaab0ed07d3724eae,5ff3a3a5d1cd501d32523781,2021-01-05_00h27.33.548,Colour_Similarity_Experiment_v1,2020.1.2,Win32,60,5ff3a352adaa099f7659f8cc,,,,,,,,,,,,,,,,,,,,FF,,,,,,,,6,1.166695,,,,,,,,,,,,,,,,,,,,,,,,,,,,8,80.80001265,50.39999431,1,0,0,response1disk,5,178,6.400011539,4.799993634,1,0,0,rectangle,6.400011539,4.799993634,1,0,0,6,2,0,0.000465,6.400011539,4.799993634,1,0,0,0,15,15,152,1,,,,,,,,,,,,,,,,,,,,,
,,,,,,,,,,,,,,,,,,,,,,,,,,,,,,,,,,,,,,,,,,,5fa948fdaab0ed07d3724eae,5ff3a3a5d1cd501d32523781,2021-01-05_00h27.33.548,Colour_Similarity_Experiment_v1,2020.1.2,Win32,60,5ff3a352adaa099f7659f8cc,,,,,,,,,,,,,,,,,,,,PF,,,,,,,,3,1.49989,,,,,,,,,,,,,,,,,,,,,,,,,,,,5,-49.5999893,-76.00000757,1,0,0,response5disk,3,179,-6.399939823,-6.400006533,1,0,0,rectangle,-6.399939823,-6.400006533,1,0,0,6,3,0,0.00054,-6.399939823,-6.400006533,1,0,0,0,16,16,109,1,,,,,,,,,,,,,,,,,,,,,
,,,,,,,,,,,,,,,,,,,,,,,,,,,,,,,,,,,,,,,,,,,5fa948fdaab0ed07d3724eae,5ff3a3a5d1cd501d32523781,2021-01-05_00h27.33.548,Colour_Similarity_Experiment_v1,2020.1.2,Win32,60,5ff3a352adaa099f7659f8cc,,,,,,,,,,,,,,,,,,,,PF,,,,,,,,6,1.19998,,,,,,,,,,,,,,,,,,,,,,,,,,,,3,76.80001259,52.79999435,1,0,0,response1disk,2,180,8.000011563,1.599993587,1,0,0,rectangle,-92.79998994,39.99999416,1,0,0,1,1,1,1.966765,-22.39994006,5.599993646,1,0,0,0,17,17,36,1,response7disk_3,rectangle,,,,,,,,,,,,,,,,,,,
,,,,,,,,,,,,,,,,,,,,,,,,,,,,,,,,,,,,,,,,,,,5fa948fdaab0ed07d3724eae,5ff3a3a5d1cd501d32523781,2021-01-05_00h27.33.548,Colour_Similarity_Experiment_v1,2020.1.2,Win32,60,5ff3a352adaa099f7659f8cc,,,,,,,,,,,,,,,,,,,,FF,,,,,,,,5,2.766845,,,,,,,,,,,,,,,,,,,,,,,,,,,,3,80.00001264,-27.20000684,1,0,0,response3disk,7,181,8.000011563,0.799993575,1,0,0,rectangle,8.000011563,0.799993575,1,0,0,1,6,0,0.000485,8.000011563,0.799993575,1,0,0,0,18,18,118,1,,,,,,,,,,,,,,,,,,,,,
,,,,,,,,,,,,,,,,,,,,,,,,,,,,,,,,,,,,,,,,,,,5fa948fdaab0ed07d3724eae,5ff3a3a5d1cd501d32523781,2021-01-05_00h27.33.548,Colour_Similarity_Experiment_v1,2020.1.2,Win32,60,5ff3a352adaa099f7659f8cc,,,,,,,,,,,,,,,,,,,,FF,,,,,,,,0,1.400175,,,,,,,,,,,,,,,,,,,,,,,,,,,,6,-63.99998951,106.3999951,1,0,0,response7disk,6,182,2.40001148,1.599993587,1,0,0,rectangle,2.40001148,1.599993587,1,0,0,1,2,0,0.00054,2.40001148,1.599993587,1,0,0,0,19,19,91,1,,,,,,,,,,,,,,,,,,,,,
,,,,,,,,,,,,,,,,,,,,,,,,,,,,,,,,,,,,,,,,,,,5fa948fdaab0ed07d3724eae,5ff3a3a5d1cd501d32523781,2021-01-05_00h27.33.548,Colour_Similarity_Experiment_v1,2020.1.2,Win32,60,5ff3a352adaa099f7659f8cc,,,,,,,,,,,,,,,,,,,,PF,,,,,,,,0,0.867245,,,,,,,,,,,,,,,,,,,,,,,,,,,,5,-59.19998944,104.7999951,1,0,0,response7disk,5,183,20.00001174,-4.800006509,1,0,0,rectangle,20.00001174,-4.800006509,1,0,0,1,6,0,0.000435,20.00001174,-4.800006509,1,0,0,0,20,20,94,1,,,,,,,,,,,,,,,,,,,,,
,,,,,,,,,,,,,,,,,,,,,,,,,,,,,,,,,,,,,,,,,,,5fa948fdaab0ed07d3724eae,5ff3a3a5d1cd501d32523781,2021-01-05_00h27.33.548,Colour_Similarity_Experiment_v1,2020.1.2,Win32,60,5ff3a352adaa099f7659f8cc,,,,,,,,,,,,,,,,,,,,PF,,,,,,,,4,1.50003,,,,,,,,,,,,,,,,,,,,,,,,,,,,7,64.0000124,-66.40000743,1,0,0,response3disk,3,184,-7.999988675,3.19999361,1,0,0,rectangle,-7.999988675,3.19999361,1,0,0,1,1,0,0.000455,-7.999988675,3.19999361,1,0,0,0,21,21,81,1,,,,,,,,,,,,,,,,,,,,,
,,,,,,,,,,,,,,,,,,,,,,,,,,,,,,,,,,,,,,,,,,,5fa948fdaab0ed07d3724eae,5ff3a3a5d1cd501d32523781,2021-01-05_00h27.33.548,Colour_Similarity_Experiment_v1,2020.1.2,Win32,60,5ff3a352adaa099f7659f8cc,,,,,,,,,,,,,,,,,,,,PF,,,,,,,,5,0.93337,,,,,,,,,,,,,,,,,,,,,,,,,,,,2,81.60001266,-38.40000701,1,0,0,response3disk,4,185,-17.59998882,3.19999361,1,0,0,rectangle,-17.59998882,3.19999361,1,0,0,1,3,0,0.000455,-17.59998882,3.19999361,1,0,0,0,22,22,127,1,,,,,,,,,,,,,,,,,,,,,
,,,,,,,,,,,,,,,,,,,,,,,,,,,,,,,,,,,,,,,,,,,5fa948fdaab0ed07d3724eae,5ff3a3a5d1cd501d32523781,2021-01-05_00h27.33.548,Colour_Similarity_Experiment_v1,2020.1.2,Win32,60,5ff3a352adaa099f7659f8cc,,,,,,,,,,,,,,,,,,,,FF,,,,,,,,0,1.050095,,,,,,,,,,,,,,,,,,,,,,,,,,,,2,-40.79998916,81.59999478,1,0,0,response7disk,2,186,-3.199988604,-6.400006533,1,0,0,rectangle,-3.199988604,-6.400006533,1,0,0,1,7,0,0.000565,-3.199988604,-6.400006533,1,0,0,0,23,23,142,1,,,,,,,,,,,,,,,,,,,,,
,,,,,,,,,,,,,,,,,,,,,,,,,,,,,,,,,,,,,,,,,,,5fa948fdaab0ed07d3724eae,5ff3a3a5d1cd501d32523781,2021-01-05_00h27.33.548,Colour_Similarity_Experiment_v1,2020.1.2,Win32,60,5ff3a352adaa099f7659f8cc,,,,,,,,,,,,,,,,,,,,FF,,,,,,,,6,6.4667,,,,,,,,,,,,,,,,,,,,,,,,,,,,7,96.00001287,24.79999393,1,0,0,response1disk,8,187,27.20001185,-2.400006473,1,0,0,rectangle,-77.59998971,-28.80000687,1,0,0,1,2,1,1.716915,-7.999988675,1.599993587,1,0,0,0,24,24,97,1,response5disk_3,rectangle,,,,,,,,,,,,,,,,,,,
,,,,,,,,,,,,,,,,,,,,,,,,,,,,,,,,,,,,,,,,,,,5fa948fdaab0ed07d3724eae,5ff3a3a5d1cd501d32523781,2021-01-05_00h27.33.548,Colour_Similarity_Experiment_v1,2020.1.2,Win32,60,5ff3a352adaa099f7659f8cc,,,,,,,,,,,,,,,,,,,,PF,,,,,,,,7,1.01666,,,,,,,,,,,,,,,,,,,,,,,,,,,,9,60.00001234,87.99999487,1,0,0,response1disk,5,188,22.40001178,-5.600006521,1,0,0,rectangle,22.40001178,-5.600006521,1,0,0,1,5,0,0.00059,22.40001178,-5.600006521,1,0,0,0,25,25,134,1,,,,,,,,,,,,,,,,,,,,,
,,,,,,,,,,,,,,,,,,,,,,,,,,,,,,,,,,,,,,,,,,,5fa948fdaab0ed07d3724eae,5ff3a3a5d1cd501d32523781,2021-01-05_00h27.33.548,Colour_Similarity_Experiment_v1,2020.1.2,Win32,60,5ff3a352adaa099f7659f8cc,,,,,,,,,,,,,,,,,,,,PF,,,,,,,,4,2.05015,,,,,,,,,,,,,,,,,,,,,,,,,,,,2,60.00001234,-81.60005648,1,0,0,response3disk,5,189,1.14441E-05,8.799993694,1,0,0,rectangle,1.14441E-05,8.799993694,1,0,0,1,1,0,0.000525,1.14441E-05,8.799993694,1,0,0,0,26,26,147,1,,,,,,,,,,,,,,,,,,,,,
,,,,,,,,,,,,,,,,,,,,,,,,,,,,,,,,,,,,,,,,,,,5fa948fdaab0ed07d3724eae,5ff3a3a5d1cd501d32523781,2021-01-05_00h27.33.548,Colour_Similarity_Experiment_v1,2020.1.2,Win32,60,5ff3a352adaa099f7659f8cc,,,,,,,,,,,,,,,,,,,,PF,,,,,,,,7,1.38333,,,,,,,,,,,,,,,,,,,,,,,,,,,,3,36.80001199,107.9999952,1,0,0,response1disk,9,190,5.600060356,5.599993646,1,0,0,rectangle,5.600060356,5.599993646,1,0,0,1,3,0,0.00049,5.600060356,5.599993646,1,0,0,0,27,27,79,1,,,,,,,,,,,,,,,,,,,,,
,,,,,,,,,,,,,,,,,,,,,,,,,,,,,,,,,,,,,,,,,,,5fa948fdaab0ed07d3724eae,5ff3a3a5d1cd501d32523781,2021-01-05_00h27.33.548,Colour_Similarity_Experiment_v1,2020.1.2,Win32,60,5ff3a352adaa099f7659f8cc,,,,,,,,,,,,,,,,,,,,FF,,,,,,,,7,4.566935,,,,,,,,,,,,,,,,,,,,,,,,,,,,1,27.20001185,83.99999481,1,0,0,response1disk,7,191,10.4000116,-0.800006449,1,0,0,rectangle,10.4000116,-0.800006449,1,0,0,1,1,0,0.001835,10.4000116,-0.800006449,1,0,0,0,28,28,137,1,,,,,,,,,,,,,,,,,,,,,
,,,,,,,,,,,,,,,,,,,,,,,,,,,,,,,,,,,,,,,,,,,5fa948fdaab0ed07d3724eae,5ff3a3a5d1cd501d32523781,2021-01-05_00h27.33.548,Colour_Similarity_Experiment_v1,2020.1.2,Win32,60,5ff3a352adaa099f7659f8cc,,,,,,,,,,,,,,,,,,,,PF,,,,,,,,5,1.88286,,,,,,,,,,,,,,,,,,,,,,,,,,,,8,69.60001248,-36.80000699,1,0,0,response3disk,2,192,19.20001173,-7.200006545,1,0,0,rectangle,19.20001173,-7.200006545,1,0,0,1,3,0,0.001215,19.20001173,-7.200006545,1,0,0,0,29,29,83,1,,,,,,,,,,,,,,,,,,,,,
,,,,,,,,,,,,,,,,,,,,,,,,,,,,,,,,,,,,,,,,,,,5fa948fdaab0ed07d3724eae,5ff3a3a5d1cd501d32523781,2021-01-05_00h27.33.548,Colour_Similarity_Experiment_v1,2020.1.2,Win32,60,5ff3a352adaa099f7659f8cc,,,,,,,,,,,,,,,,,,,,FF,,,,,,,,7,2.466795,,,,,,,,,,,,,,,,,,,,,,,,,,,,6,60.80001235,79.99999475,1,0,0,response1disk,2,193,20.00001174,-6.4373E-06,1,0,0,rectangle,20.00001174,-6.4373E-06,1,0,0,1,7,0,0.00048,20.00001174,-6.4373E-06,1,0,0,0,30,30,112,1,,,,,,,,,,,,,,,,,,,,,
,,,,,,,,,,,,,,,,,,,,,,,,,,,,,,,,,,,,,,,,,,,5fa948fdaab0ed07d3724eae,5ff3a3a5d1cd501d32523781,2021-01-05_00h27.33.548,Colour_Similarity_Experiment_v1,2020.1.2,Win32,60,5ff3a352adaa099f7659f8cc,,,,,,,,,,,,,,,,,,,,FF,,,,,,,,6,4.23358,,,,,,,,,,,,,,,,,,,,,,,,,,,,3,82.40001267,47.99999428,1,0,0,response1disk,1,194,14.40001166,5.599993646,1,0,0,rectangle,14.40001166,5.599993646,1,0,0,1,5,0,0.001135,14.40001166,5.599993646,1,0,0,0,31,31,125,1,,,,,,,,,,,,,,,,,,,,,
,,,,,,,,,,,,,,,,,,,,,,,,,,,,,,,,,,,,,,,,,,,5fa948fdaab0ed07d3724eae,5ff3a3a5d1cd501d32523781,2021-01-05_00h27.33.548,Colour_Similarity_Experiment_v1,2020.1.2,Win32,60,5ff3a352adaa099f7659f8cc,,,,,,,,,,,,,,,,,,,,FF,,,,,,,,0,1.083735,,,,,,,,,,,,,,,,,,,,,,,,,,,,3,-53.59998935,118.3999953,1,0,0,response7disk,3,195,-3.199988604,-1.600006461,1,0,0,rectangle,-3.199988604,-1.600006461,1,0,0,1,7,0,0.00052,-3.199988604,-1.600006461,1,0,0,0,32,32,68,1,,,,,,,,,,,,,,,,,,,,,
,,,,,,,,,,,,,,,,,,,,,,,,,,,,,,,,,,,,,,,,,,,5fa948fdaab0ed07d3724eae,5ff3a3a5d1cd501d32523781,2021-01-05_00h27.33.548,Colour_Similarity_Experiment_v1,2020.1.2,Win32,60,5ff3a352adaa099f7659f8cc,,,,,,,,,,,,,,,,,,,,FF,,,,,,,,5,2.21654,,,,,,,,,,,,,,,,,,,,,,,,,,,,2,103.200013,-38.40000701,1,0,0,response3disk,8,196,12.80001163,-4.000006497,1,0,0,rectangle,12.80001163,-4.000006497,1,0,0,1,0,0,0.000825,12.80001163,-4.000006497,1,0,0,0,33,33,62,1,,,,,,,,,,,,,,,,,,,,,
,,,,,,,,,,,,,,,,,,,,,,,,,,,,,,,,,,,,,,,,,,,5fa948fdaab0ed07d3724eae,5ff3a3a5d1cd501d32523781,2021-01-05_00h27.33.548,Colour_Similarity_Experiment_v1,2020.1.2,Win32,60,5ff3a352adaa099f7659f8cc,,,,,,,,,,,,,,,,,,,,FF,,,,,,,,6,0.93335,,,,,,,,,,,,,,,,,,,,,,,,,,,,7,99.20001292,39.99999416,1,0,0,response1disk,3,197,6.400011539,2.399993598,1,0,0,rectangle,6.400011539,2.399993598,1,0,0,1,2,0,0.00065,6.400011539,2.399993598,1,0,0,0,34,34,73,1,,,,,,,,,,,,,,,,,,,,,
,,,,,,,,,,,,,,,,,,,,,,,,,,,,,,,,,,,,,,,,,,,5fa948fdaab0ed07d3724eae,5ff3a3a5d1cd501d32523781,2021-01-05_00h27.33.548,Colour_Similarity_Experiment_v1,2020.1.2,Win32,60,5ff3a352adaa099f7659f8cc,,,,,,,,,,,,,,,,,,,,PF,,,,,,,,2,1.13331,,,,,,,,,,,,,,,,,,,,,,,,,,,,5,-67.19998956,-35.20000696,1,0,0,response5disk,4,198,8.000011563,-2.400006473,1,0,0,rectangle,8.000011563,-2.400006473,1,0,0,1,2,0,0.000455,8.000011563,-2.400006473,1,0,0,0,35,35,54,1,,,,,,,,,,,,,,,,,,,,,
,,,,,,,,,,,,,,,,,,,,,,,,,,,,,,,,,,,,,,,,,,,5fa948fdaab0ed07d3724eae,5ff3a3a5d1cd501d32523781,2021-01-05_00h27.33.548,Colour_Similarity_Experiment_v1,2020.1.2,Win32,60,5ff3a352adaa099f7659f8cc,,,,,,,,,,,,,,,,,,,,PF,,,,,,,,5,1.600095,,,,,,,,,,,,,,,,,,,,,,,,,,,,4,84.0000127,-42.40000707,1,0,0,response3disk,2,199,-11.19998872,5.599993646,1,0,0,rectangle,-11.19998872,5.599993646,1,0,0,1,7,0,0.000495,-11.19998872,5.599993646,1,0,0,0,36,36,108,1,,,,,,,,,,,,,,,,,,,,,
