key_resp.keys,key_resp.rt,key_resp_16.keys,key_resp_16.rt,key_resp_2.keys,key_resp_2.rt,X Scale,ratio_pxpermm,screen_size_x,screen_size_y,testsize,key_resp_3.keys,key_resp_3.rt,key_resp_4.keys,key_resp_4.rt,line_size,key_resp_5.keys,key_resp_5.rt,key_resp_6.keys,key_resp_6.rt,key_resp_8.keys,key_resp_8.rt,key_resp_7.keys,key_resp_7.rt,key_resp_12.keys,key_resp_12.rt,key_resp_11.keys,key_resp_11.rt,key_resp_18.keys,key_resp_18.rt,key_resp_21.keys,key_resp_21.rt,key_resp_13.keys,key_resp_13.rt,key_resp_19.keys,key_resp_19.rt,ballposx,viewer_distance,trials.thisRepN,trials.thisTrialN,trials.thisN,trials.thisIndex,trials.ran,participant,session,date,expName,psychopyVersion,OS,frameRate,study_id,viewerdistancecm,DVA_to_distance,radius_F,radius_P,r_F,R_P,key_resp_20.keys,key_resp_20.rt,key_resp_14.keys,key_resp_14.rt,key_resp_15.keys,key_resp_15.rt,key_resp_17.keys,key_resp_17.rt,key_resp_9.keys,key_resp_9.rt,key_resp_10.keys,key_resp_10.rt,Colour_1,Ecc,mouse_5.x,mouse_5.y,mouse_5.leftButton,mouse_5.midButton,mouse_5.rightButton,mouse_5.clicked_name,Colour_2,similarity,response_time,mouse_10.x,mouse_10.y,mouse_10.leftButton,mouse_10.midButton,mouse_10.rightButton,mouse_10.clicked_name,mouse_7.x,mouse_7.y,mouse_7.leftButton,mouse_7.midButton,mouse_7.rightButton,catchnumberprac,mouse_6.x,mouse_6.y,mouse_6.leftButton,mouse_6.midButton,mouse_6.rightButton,duringprac.thisRepN,duringprac.thisTrialN,duringprac.thisN,duringprac.thisIndex,duringprac.ran,mouse_7.clicked_name,catchprac,mouse_6.clicked_name,key_resp_22.keys,key_resp_22.rt,Colour1,mouse.x,mouse.y,mouse.leftButton,mouse.midButton,mouse.rightButton,mouse.clicked_name,Colour2,trialnumber,mouse_2.x,mouse_2.y,mouse_2.leftButton,mouse_2.midButton,mouse_2.rightButton,mouse_2.clicked_name,mouse_3.x,mouse_3.y,mouse_3.leftButton,mouse_3.midButton,mouse_3.rightButton,catchresponse,catchnumber,Catch,response_time_catch,mouse_11.x,mouse_11.y,mouse_11.leftButton,mouse_11.midButton,mouse_11.rightButton,trials_2.thisRepN,trials_2.thisTrialN,trials_2.thisN,trials_2.thisIndex,trials_2.ran,mouse_3.clicked_name,mouse_11.clicked_name,trials_3.thisRepN,trials_3.thisTrialN,trials_3.thisN,trials_3.thisIndex,trials_3.ran,answer1,rt1,answer2,rt2,answer3,rt3,answer4,rt4,answer5,rt5,answer6,rt6,answer7,rt7
space,5.304085,space,12.930495,space,6.462715,35.9,3.59,534.8189415,300.8356546,1920,space,47.21852,space,67.795375,71.8,space,21.741455,space,5.58137,space,1.396115,space,6.58225,space,54.288,space,20.00506,space,11.371445,space,9.34307,space,21.099805,return,3.122975,178.56,683.8983866,0,0,0,0,1,5fbec1472c47c30cb0dacd41,5ff3a40fbaa7c4a16543c882,2021-01-05_00h26.25.983,Colour_Similarity_Experiment_v1,2020.1.2,Win32,60,5ff3a352adaa099f7659f8cc,,,,,,,,,,,,,,,,,,,,,,,,,,,,,,,,,,,,,,,,,,,,,,,,,,,,,,,,,,,,,,,,,,,,,,,,,,,,,,,,,,,,,,,,,,,,,,,,,,,,,,,,,,,,,,,
,,,,,,,,,,,,,,,,,,,,,,,,,,,,,,,,,,return,3.003225,198.72,660.5077251,1,0,1,0,1,5fbec1472c47c30cb0dacd41,5ff3a40fbaa7c4a16543c882,2021-01-05_00h26.25.983,Colour_Similarity_Experiment_v1,2020.1.2,Win32,60,5ff3a352adaa099f7659f8cc,,,,,,,,,,,,,,,,,,,,,,,,,,,,,,,,,,,,,,,,,,,,,,,,,,,,,,,,,,,,,,,,,,,,,,,,,,,,,,,,,,,,,,,,,,,,,,,,,,,,,,,,,,,,,,,
,,,,,,,,,,,,,,,,,,,,,,,,,,,,,,,,,,return,3.11818,178.56,683.8983866,2,0,2,0,1,5fbec1472c47c30cb0dacd41,5ff3a40fbaa7c4a16543c882,2021-01-05_00h26.25.983,Colour_Similarity_Experiment_v1,2020.1.2,Win32,60,5ff3a352adaa099f7659f8cc,,,,,,,,,,,,,,,,,,,,,,,,,,,,,,,,,,,,,,,,,,,,,,,,,,,,,,,,,,,,,,,,,,,,,,,,,,,,,,,,,,,,,,,,,,,,,,,,,,,,,,,,,,,,,,,
,,,,,,,,,,,,,,,,,,,,,,,,,,,,,,,,,,return,2.95368,207.36,650.4831559,3,0,3,0,1,5fbec1472c47c30cb0dacd41,5ff3a40fbaa7c4a16543c882,2021-01-05_00h26.25.983,Colour_Similarity_Experiment_v1,2020.1.2,Win32,60,5ff3a352adaa099f7659f8cc,,,,,,,,,,,,,,,,,,,,,,,,,,,,,,,,,,,,,,,,,,,,,,,,,,,,,,,,,,,,,,,,,,,,,,,,,,,,,,,,,,,,,,,,,,,,,,,,,,,,,,,,,,,,,,,
,,,,,,,,,,,,,,,,,,,,,,,,,,,,,,,,,,return,2.91646,216,640.4585868,4,0,4,0,1,5fbec1472c47c30cb0dacd41,5ff3a40fbaa7c4a16543c882,2021-01-05_00h26.25.983,Colour_Similarity_Experiment_v1,2020.1.2,Win32,60,5ff3a352adaa099f7659f8cc,,,,,,,,,,,,,,,,,,,,,,,,,,,,,,,,,,,,,,,,,,,,,,,,,,,,,,,,,,,,,,,,,,,,,,,,,,,,,,,,,,,,,,,,,,,,,,,,,,,,,,,,,,,,,,,
,,,,,,,,,,,,,,,,,,,,,,,,,,,,,,,,,,,,,,,,,,,5fbec1472c47c30cb0dacd41,5ff3a40fbaa7c4a16543c882,2021-01-05_00h26.25.983,Colour_Similarity_Experiment_v1,2020.1.2,Win32,60,5ff3a352adaa099f7659f8cc,66,11.52033873,62.03702407,413.5801605,41.35801605,186.1110722,space,4.4756,space,16.26231,space,107.854405,space,9.581225,space,12.707555,space,8.408015,3,FF,138,58,1,0,0,response1disk_5,7,6,12.17137,-2,1,1,0,0,rectangle_8,-2,1,1,0,0,4,-2,1,1,0,0,0,0,0,0,1,,,,,,,,,,,,,,,,,,,,,,,,,,,,,,,,,,,,,,,,,,,,,,,,,,,,,,,,,,,,
,,,,,,,,,,,,,,,,,,,,,,,,,,,,,,,,,,,,,,,,,,,5fbec1472c47c30cb0dacd41,5ff3a40fbaa7c4a16543c882,2021-01-05_00h26.25.983,Colour_Similarity_Experiment_v1,2020.1.2,Win32,60,5ff3a352adaa099f7659f8cc,,,,,,,,,,,,,,,,,,,9,FF,-77,-127,1,0,0,response5disk_5,1,3,5.25959,10,0,1,0,0,rectangle_8,10,0,1,0,0,4,10,0,1,0,0,0,1,1,5,1,,,,,,,,,,,,,,,,,,,,,,,,,,,,,,,,,,,,,,,,,,,,,,,,,,,,,,,,,,,,
,,,,,,,,,,,,,,,,,,,,,,,,,,,,,,,,,,,,,,,,,,,5fbec1472c47c30cb0dacd41,5ff3a40fbaa7c4a16543c882,2021-01-05_00h26.25.983,Colour_Similarity_Experiment_v1,2020.1.2,Win32,60,5ff3a352adaa099f7659f8cc,,,,,,,,,,,,,,,,,,,6,PF,-29,101,1,0,0,response7disk_5,6,0,3.23046,-19,0,1,0,0,rectangle_8,-19,0,1,0,0,4,-19,0,1,0,0,0,2,2,2,1,,,,,,,,,,,,,,,,,,,,,,,,,,,,,,,,,,,,,,,,,,,,,,,,,,,,,,,,,,,,
,,,,,,,,,,,,,,,,,,,,,,,,,,,,,,,,,,,,,,,,,,,5fbec1472c47c30cb0dacd41,5ff3a40fbaa7c4a16543c882,2021-01-05_00h26.25.983,Colour_Similarity_Experiment_v1,2020.1.2,Win32,60,5ff3a352adaa099f7659f8cc,,,,,,,,,,,,,,,,,,,3,PF,82,112,1,0,0,response1disk_5,1,7,3.248015,5,-6,1,0,0,rectangle_8,5,-6,1,0,0,4,5,-6,1,0,0,0,3,3,1,1,,,,,,,,,,,,,,,,,,,,,,,,,,,,,,,,,,,,,,,,,,,,,,,,,,,,,,,,,,,,
,,,,,,,,,,,,,,,,,,,,,,,,,,,,,,,,,,,,,,,,,,,5fbec1472c47c30cb0dacd41,5ff3a40fbaa7c4a16543c882,2021-01-05_00h26.25.983,Colour_Similarity_Experiment_v1,2020.1.2,Win32,60,5ff3a352adaa099f7659f8cc,,,,,,,,,,,,,,,,,,,6,FF,-134,-66,1,0,0,response5disk_5,5,2,4.91124,-8,0,1,0,0,rectangle_8,-8,0,1,0,0,4,-8,0,1,0,0,0,4,4,3,1,,,,,,,,,,,,,,,,,,,,,,,,,,,,,,,,,,,,,,,,,,,,,,,,,,,,,,,,,,,,
,,,,,,,,,,,,,,,,,,,,,,,,,,,,,,,,,,,,,,,,,,,5fbec1472c47c30cb0dacd41,5ff3a40fbaa7c4a16543c882,2021-01-05_00h26.25.983,Colour_Similarity_Experiment_v1,2020.1.2,Win32,60,5ff3a352adaa099f7659f8cc,,,,,,,,,,,,,,,,,,,5,PF,94,117,1,0,0,response1disk_5,8,7,3.11418,11,-6,1,0,0,rectangle_8,86,-151,1,0,0,4,1,-1,1,0,0,0,5,5,6,1,response3disk_7,4,rectangle_4,,,,,,,,,,,,,,,,,,,,,,,,,,,,,,,,,,,,,,,,,,,,,,,,,,,,,,,,,
,,,,,,,,,,,,,,,,,,,,,,,,,,,,,,,,,,,,,,,,,,,5fbec1472c47c30cb0dacd41,5ff3a40fbaa7c4a16543c882,2021-01-05_00h26.25.983,Colour_Similarity_Experiment_v1,2020.1.2,Win32,60,5ff3a352adaa099f7659f8cc,,,,,,,,,,,,,,,,,,,3,PF,-124,59,1,0,0,response7disk_5,5,1,4.650115,-13,1,1,0,0,rectangle_8,-13,1,1,0,0,4,-13,1,1,0,0,0,6,6,4,1,,,,,,,,,,,,,,,,,,,,,,,,,,,,,,,,,,,,,,,,,,,,,,,,,,,,,,,,,,,,
,,,,,,,,,,,,,,,,,,,,,,,,,,,,,,,,,,,,,,,,,,,5fbec1472c47c30cb0dacd41,5ff3a40fbaa7c4a16543c882,2021-01-05_00h26.25.983,Colour_Similarity_Experiment_v1,2020.1.2,Win32,60,5ff3a352adaa099f7659f8cc,,,,,,,,,,,,,,,,,,,,PF,,,,,,,,4,4.329305,,,,,,,,,,,,,,,,,,,,,,,,,,space,4.398665,2,47,-123,1,0,0,response3disk,3,1,-9,6,1,0,0,rectangle,-9,6,1,0,0,,7,0,0.00216,-9,6,1,0,0,0,0,0,69,1,,,,,,,,,,,,,,,,,,,,,
,,,,,,,,,,,,,,,,,,,,,,,,,,,,,,,,,,,,,,,,,,,5fbec1472c47c30cb0dacd41,5ff3a40fbaa7c4a16543c882,2021-01-05_00h26.25.983,Colour_Similarity_Experiment_v1,2020.1.2,Win32,60,5ff3a352adaa099f7659f8cc,,,,,,,,,,,,,,,,,,,,PF,,,,,,,,3,2.003925,,,,,,,,,,,,,,,,,,,,,,,,,,,,5,-70,-130,1,0,0,response5disk,7,2,10,1,1,0,0,rectangle,10,1,1,0,0,,1,0,0.001265,10,1,1,0,0,0,1,1,146,1,,,,,,,,,,,,,,,,,,,,,
,,,,,,,,,,,,,,,,,,,,,,,,,,,,,,,,,,,,,,,,,,,5fbec1472c47c30cb0dacd41,5ff3a40fbaa7c4a16543c882,2021-01-05_00h26.25.983,Colour_Similarity_Experiment_v1,2020.1.2,Win32,60,5ff3a352adaa099f7659f8cc,,,,,,,,,,,,,,,,,,,,FF,,,,,,,,0,2.222535,,,,,,,,,,,,,,,,,,,,,,,,,,,,4,-53,131,1,0,0,response7disk,4,3,-26,-4,1,0,0,rectangle,-26,-4,1,0,0,,1,0,0.002025,-26,-4,1,0,0,0,2,2,84,1,,,,,,,,,,,,,,,,,,,,,
,,,,,,,,,,,,,,,,,,,,,,,,,,,,,,,,,,,,,,,,,,,5fbec1472c47c30cb0dacd41,5ff3a40fbaa7c4a16543c882,2021-01-05_00h26.25.983,Colour_Similarity_Experiment_v1,2020.1.2,Win32,60,5ff3a352adaa099f7659f8cc,,,,,,,,,,,,,,,,,,,,PF,,,,,,,,3,2.415985,,,,,,,,,,,,,,,,,,,,,,,,,,,,3,-75,-110,1,0,0,response5disk,5,4,-12,8,1,0,0,rectangle,-12,8,1,0,0,,3,0,0.00127,-12,8,1,0,0,0,3,3,66,1,,,,,,,,,,,,,,,,,,,,,
,,,,,,,,,,,,,,,,,,,,,,,,,,,,,,,,,,,,,,,,,,,5fbec1472c47c30cb0dacd41,5ff3a40fbaa7c4a16543c882,2021-01-05_00h26.25.983,Colour_Similarity_Experiment_v1,2020.1.2,Win32,60,5ff3a352adaa099f7659f8cc,,,,,,,,,,,,,,,,,,,,FF,,,,,,,,5,4.24361,,,,,,,,,,,,,,,,,,,,,,,,,,,,4,133,-55,1,0,0,response3disk,7,5,3,-4,1,0,0,rectangle,3,-4,1,0,0,,1,0,0.00125,3,-4,1,0,0,0,4,4,87,1,,,,,,,,,,,,,,,,,,,,,
,,,,,,,,,,,,,,,,,,,,,,,,,,,,,,,,,,,,,,,,,,,5fbec1472c47c30cb0dacd41,5ff3a40fbaa7c4a16543c882,2021-01-05_00h26.25.983,Colour_Similarity_Experiment_v1,2020.1.2,Win32,60,5ff3a352adaa099f7659f8cc,,,,,,,,,,,,,,,,,,,,PF,,,,,,,,7,2.219565,,,,,,,,,,,,,,,,,,,,,,,,,,,,1,92,155,1,0,0,response1disk,5,6,7,1,1,0,0,rectangle,7,1,1,0,0,,0,0,0.030875,7,1,1,0,0,0,5,5,28,1,,,,,,,,,,,,,,,,,,,,,
,,,,,,,,,,,,,,,,,,,,,,,,,,,,,,,,,,,,,,,,,,,5fbec1472c47c30cb0dacd41,5ff3a40fbaa7c4a16543c882,2021-01-05_00h26.25.983,Colour_Similarity_Experiment_v1,2020.1.2,Win32,60,5ff3a352adaa099f7659f8cc,,,,,,,,,,,,,,,,,,,,FF,,,,,,,,7,1.54272,,,,,,,,,,,,,,,,,,,,,,,,,,,,5,86,111,1,0,0,response1disk,1,7,18,-1,1,0,0,rectangle,18,-1,1,0,0,,3,0,0.00181,18,-1,1,0,0,0,6,6,131,1,,,,,,,,,,,,,,,,,,,,,
,,,,,,,,,,,,,,,,,,,,,,,,,,,,,,,,,,,,,,,,,,,5fbec1472c47c30cb0dacd41,5ff3a40fbaa7c4a16543c882,2021-01-05_00h26.25.983,Colour_Similarity_Experiment_v1,2020.1.2,Win32,60,5ff3a352adaa099f7659f8cc,,,,,,,,,,,,,,,,,,,,PF,,,,,,,,7,5.2454,,,,,,,,,,,,,,,,,,,,,,,,,,,,8,78,116,1,0,0,response1disk,7,8,-6,1,1,0,0,rectangle,-6,1,1,0,0,,6,0,0.00217,-6,1,1,0,0,0,7,7,23,1,,,,,,,,,,,,,,,,,,,,,
,,,,,,,,,,,,,,,,,,,,,,,,,,,,,,,,,,,,,,,,,,,5fbec1472c47c30cb0dacd41,5ff3a40fbaa7c4a16543c882,2021-01-05_00h26.25.983,Colour_Similarity_Experiment_v1,2020.1.2,Win32,60,5ff3a352adaa099f7659f8cc,,,,,,,,,,,,,,,,,,,,PF,,,,,,,,5,4.62135,,,,,,,,,,,,,,,,,,,,,,,,,,,,6,127,-30,1,0,0,response3disk,2,9,-1,-6,1,0,0,rectangle,-1,-6,1,0,0,,0,0,0.0014,-1,-6,1,0,0,0,8,8,130,1,,,,,,,,,,,,,,,,,,,,,
,,,,,,,,,,,,,,,,,,,,,,,,,,,,,,,,,,,,,,,,,,,5fbec1472c47c30cb0dacd41,5ff3a40fbaa7c4a16543c882,2021-01-05_00h26.25.983,Colour_Similarity_Experiment_v1,2020.1.2,Win32,60,5ff3a352adaa099f7659f8cc,,,,,,,,,,,,,,,,,,,,FF,,,,,,,,0,2.16917,,,,,,,,,,,,,,,,,,,,,,,,,,,,9,-47,119,1,0,0,response7disk,9,10,5,7,1,0,0,rectangle,5,7,1,0,0,,1,0,0.00167,5,7,1,0,0,0,9,9,17,1,,,,,,,,,,,,,,,,,,,,,
,,,,,,,,,,,,,,,,,,,,,,,,,,,,,,,,,,,,,,,,,,,5fbec1472c47c30cb0dacd41,5ff3a40fbaa7c4a16543c882,2021-01-05_00h26.25.983,Colour_Similarity_Experiment_v1,2020.1.2,Win32,60,5ff3a352adaa099f7659f8cc,,,,,,,,,,,,,,,,,,,,PF,,,,,,,,0,2.248235,,,,,,,,,,,,,,,,,,,,,,,,,,,,2,-54,134,1,0,0,response7disk,2,11,9,-20,1,0,0,rectangle,9,-20,1,0,0,,2,0,0.001595,9,-20,1,0,0,0,10,10,14,1,,,,,,,,,,,,,,,,,,,,,
,,,,,,,,,,,,,,,,,,,,,,,,,,,,,,,,,,,,,,,,,,,5fbec1472c47c30cb0dacd41,5ff3a40fbaa7c4a16543c882,2021-01-05_00h26.25.983,Colour_Similarity_Experiment_v1,2020.1.2,Win32,60,5ff3a352adaa099f7659f8cc,,,,,,,,,,,,,,,,,,,,FF,,,,,,,,6,2.296635,,,,,,,,,,,,,,,,,,,,,,,,,,,,9,127,58,1,0,0,response1disk,6,12,5,17,1,0,0,rectangle,5,17,1,0,0,,4,0,0.001305,5,17,1,0,0,0,11,11,117,1,,,,,,,,,,,,,,,,,,,,,
,,,,,,,,,,,,,,,,,,,,,,,,,,,,,,,,,,,,,,,,,,,5fbec1472c47c30cb0dacd41,5ff3a40fbaa7c4a16543c882,2021-01-05_00h26.25.983,Colour_Similarity_Experiment_v1,2020.1.2,Win32,60,5ff3a352adaa099f7659f8cc,,,,,,,,,,,,,,,,,,,,FF,,,,,,,,6,2.418855,,,,,,,,,,,,,,,,,,,,,,,,,,,,6,101,68,1,0,0,response1disk,9,13,-26,5,1,0,0,rectangle,-104,70,1,0,0,1,1,1,3.07975,24,0,1,0,0,0,12,12,160,1,response7disk_3,rectangle,,,,,,,,,,,,,,,,,,,
,,,,,,,,,,,,,,,,,,,,,,,,,,,,,,,,,,,,,,,,,,,5fbec1472c47c30cb0dacd41,5ff3a40fbaa7c4a16543c882,2021-01-05_00h26.25.983,Colour_Similarity_Experiment_v1,2020.1.2,Win32,60,5ff3a352adaa099f7659f8cc,,,,,,,,,,,,,,,,,,,,FF,,,,,,,,7,2.268965,,,,,,,,,,,,,,,,,,,,,,,,,,,,8,78,113,1,0,0,response1disk,4,14,-5,0,1,0,0,rectangle,-5,0,1,0,0,1,4,0,0.002235,-5,0,1,0,0,0,13,13,88,1,,,,,,,,,,,,,,,,,,,,,
,,,,,,,,,,,,,,,,,,,,,,,,,,,,,,,,,,,,,,,,,,,5fbec1472c47c30cb0dacd41,5ff3a40fbaa7c4a16543c882,2021-01-05_00h26.25.983,Colour_Similarity_Experiment_v1,2020.1.2,Win32,60,5ff3a352adaa099f7659f8cc,,,,,,,,,,,,,,,,,,,,PF,,,,,,,,7,1.844115,,,,,,,,,,,,,,,,,,,,,,,,,,,,5,62,128,1,0,0,response1disk,9,15,-3,11,1,0,0,rectangle,108,40,1,0,0,6,6,1,2.779415,5,1,1,0,0,0,14,14,136,1,response1disk_3,rectangle,,,,,,,,,,,,,,,,,,,
,,,,,,,,,,,,,,,,,,,,,,,,,,,,,,,,,,,,,,,,,,,5fbec1472c47c30cb0dacd41,5ff3a40fbaa7c4a16543c882,2021-01-05_00h26.25.983,Colour_Similarity_Experiment_v1,2020.1.2,Win32,60,5ff3a352adaa099f7659f8cc,,,,,,,,,,,,,,,,,,,,PF,,,,,,,,3,5.222155,,,,,,,,,,,,,,,,,,,,,,,,,,,,2,-68,-113,1,0,0,response5disk,1,16,-6,9,1,0,0,rectangle,-6,9,1,0,0,6,4,0,0.001895,-6,9,1,0,0,0,15,15,9,1,,,,,,,,,,,,,,,,,,,,,
,,,,,,,,,,,,,,,,,,,,,,,,,,,,,,,,,,,,,,,,,,,5fbec1472c47c30cb0dacd41,5ff3a40fbaa7c4a16543c882,2021-01-05_00h26.25.983,Colour_Similarity_Experiment_v1,2020.1.2,Win32,60,5ff3a352adaa099f7659f8cc,,,,,,,,,,,,,,,,,,,,FF,,,,,,,,7,4.78682,,,,,,,,,,,,,,,,,,,,,,,,,,,,7,91,131,1,0,0,response1disk,1,17,5,9,1,0,0,rectangle,5,9,1,0,0,6,0,0,0.001305,5,9,1,0,0,0,16,16,132,1,,,,,,,,,,,,,,,,,,,,,
,,,,,,,,,,,,,,,,,,,,,,,,,,,,,,,,,,,,,,,,,,,5fbec1472c47c30cb0dacd41,5ff3a40fbaa7c4a16543c882,2021-01-05_00h26.25.983,Colour_Similarity_Experiment_v1,2020.1.2,Win32,60,5ff3a352adaa099f7659f8cc,,,,,,,,,,,,,,,,,,,,PF,,,,,,,,0,2.95731,,,,,,,,,,,,,,,,,,,,,,,,,,,,8,-26,102,1,0,0,response7disk,8,18,-26,-5,1,0,0,rectangle,-26,-5,1,0,0,6,7,0,0.00214,-26,-5,1,0,0,0,17,17,153,1,,,,,,,,,,,,,,,,,,,,,
,,,,,,,,,,,,,,,,,,,,,,,,,,,,,,,,,,,,,,,,,,,5fbec1472c47c30cb0dacd41,5ff3a40fbaa7c4a16543c882,2021-01-05_00h26.25.983,Colour_Similarity_Experiment_v1,2020.1.2,Win32,60,5ff3a352adaa099f7659f8cc,,,,,,,,,,,,,,,,,,,,FF,,,,,,,,7,2.23275,,,,,,,,,,,,,,,,,,,,,,,,,,,,9,59,94,1,0,0,response1disk,7,19,-18,6,1,0,0,rectangle,-18,6,1,0,0,6,6,0,0.001285,-18,6,1,0,0,0,18,18,100,1,,,,,,,,,,,,,,,,,,,,,
,,,,,,,,,,,,,,,,,,,,,,,,,,,,,,,,,,,,,,,,,,,5fbec1472c47c30cb0dacd41,5ff3a40fbaa7c4a16543c882,2021-01-05_00h26.25.983,Colour_Similarity_Experiment_v1,2020.1.2,Win32,60,5ff3a352adaa099f7659f8cc,,,,,,,,,,,,,,,,,,,,PF,,,,,,,,7,2.0425,,,,,,,,,,,,,,,,,,,,,,,,,,,,7,33,124,1,0,0,response1disk,1,20,-11,6,1,0,0,rectangle,-11,6,1,0,0,6,2,0,0.100385,-11,6,1,0,0,0,19,19,53,1,,,,,,,,,,,,,,,,,,,,,
,,,,,,,,,,,,,,,,,,,,,,,,,,,,,,,,,,,,,,,,,,,5fbec1472c47c30cb0dacd41,5ff3a40fbaa7c4a16543c882,2021-01-05_00h26.25.983,Colour_Similarity_Experiment_v1,2020.1.2,Win32,60,5ff3a352adaa099f7659f8cc,,,,,,,,,,,,,,,,,,,,PF,,,,,,,,6,2.061575,,,,,,,,,,,,,,,,,,,,,,,,,,,,6,116,65,1,0,0,response1disk,9,21,-10,-9,1,0,0,rectangle,-10,-9,1,0,0,6,2,0,0.001885,-10,-9,1,0,0,0,20,20,45,1,,,,,,,,,,,,,,,,,,,,,
,,,,,,,,,,,,,,,,,,,,,,,,,,,,,,,,,,,,,,,,,,,5fbec1472c47c30cb0dacd41,5ff3a40fbaa7c4a16543c882,2021-01-05_00h26.25.983,Colour_Similarity_Experiment_v1,2020.1.2,Win32,60,5ff3a352adaa099f7659f8cc,,,,,,,,,,,,,,,,,,,,FF,,,,,,,,7,6.932415,,,,,,,,,,,,,,,,,,,,,,,,,,,,2,33,166,1,0,0,response1disk,5,22,-4,-5,1,0,0,rectangle,-4,-5,1,0,0,6,2,0,0.00132,-4,-5,1,0,0,0,21,21,80,1,,,,,,,,,,,,,,,,,,,,,
,,,,,,,,,,,,,,,,,,,,,,,,,,,,,,,,,,,,,,,,,,,5fbec1472c47c30cb0dacd41,5ff3a40fbaa7c4a16543c882,2021-01-05_00h26.25.983,Colour_Similarity_Experiment_v1,2020.1.2,Win32,60,5ff3a352adaa099f7659f8cc,,,,,,,,,,,,,,,,,,,,FF,,,,,,,,3,2.168595,,,,,,,,,,,,,,,,,,,,,,,,,,,,7,-54,-115,1,0,0,response5disk,5,23,-35,0,1,0,0,rectangle,-35,0,1,0,0,6,5,0,0.001435,-35,0,1,0,0,0,22,22,156,1,,,,,,,,,,,,,,,,,,,,,
,,,,,,,,,,,,,,,,,,,,,,,,,,,,,,,,,,,,,,,,,,,5fbec1472c47c30cb0dacd41,5ff3a40fbaa7c4a16543c882,2021-01-05_00h26.25.983,Colour_Similarity_Experiment_v1,2020.1.2,Win32,60,5ff3a352adaa099f7659f8cc,,,,,,,,,,,,,,,,,,,,FF,,,,,,,,3,1.87393,,,,,,,,,,,,,,,,,,,,,,,,,,,,7,-56,-93,1,0,0,response5disk,6,24,-27,-5,1,0,0,rectangle,-27,-5,1,0,0,6,0,0,0.001375,-27,-5,1,0,0,0,23,23,31,1,,,,,,,,,,,,,,,,,,,,,
,,,,,,,,,,,,,,,,,,,,,,,,,,,,,,,,,,,,,,,,,,,5fbec1472c47c30cb0dacd41,5ff3a40fbaa7c4a16543c882,2021-01-05_00h26.25.983,Colour_Similarity_Experiment_v1,2020.1.2,Win32,60,5ff3a352adaa099f7659f8cc,,,,,,,,,,,,,,,,,,,,FF,,,,,,,,6,3.34575,,,,,,,,,,,,,,,,,,,,,,,,,,,,7,105,63,1,0,0,response1disk,2,25,8,6,1,0,0,rectangle,8,6,1,0,0,6,6,0,0.00154,8,6,1,0,0,0,24,24,138,1,,,,,,,,,,,,,,,,,,,,,
,,,,,,,,,,,,,,,,,,,,,,,,,,,,,,,,,,,,,,,,,,,5fbec1472c47c30cb0dacd41,5ff3a40fbaa7c4a16543c882,2021-01-05_00h26.25.983,Colour_Similarity_Experiment_v1,2020.1.2,Win32,60,5ff3a352adaa099f7659f8cc,,,,,,,,,,,,,,,,,,,,PF,,,,,,,,1,2.74747,,,,,,,,,,,,,,,,,,,,,,,,,,,,5,-150,48,1,0,0,response7disk,4,26,-16,-1,1,0,0,rectangle,-16,-1,1,0,0,6,4,0,0.00118,-16,-1,1,0,0,0,25,25,54,1,,,,,,,,,,,,,,,,,,,,,
,,,,,,,,,,,,,,,,,,,,,,,,,,,,,,,,,,,,,,,,,,,5fbec1472c47c30cb0dacd41,5ff3a40fbaa7c4a16543c882,2021-01-05_00h26.25.983,Colour_Similarity_Experiment_v1,2020.1.2,Win32,60,5ff3a352adaa099f7659f8cc,,,,,,,,,,,,,,,,,,,,PF,,,,,,,,6,2.83513,,,,,,,,,,,,,,,,,,,,,,,,,,,,3,114,38,1,0,0,response1disk,6,27,-19,-2,1,0,0,rectangle,-19,-2,1,0,0,6,0,0,0.001315,-19,-2,1,0,0,0,26,26,47,1,,,,,,,,,,,,,,,,,,,,,
,,,,,,,,,,,,,,,,,,,,,,,,,,,,,,,,,,,,,,,,,,,5fbec1472c47c30cb0dacd41,5ff3a40fbaa7c4a16543c882,2021-01-05_00h26.25.983,Colour_Similarity_Experiment_v1,2020.1.2,Win32,60,5ff3a352adaa099f7659f8cc,,,,,,,,,,,,,,,,,,,,PF,,,,,,,,7,1.659325,,,,,,,,,,,,,,,,,,,,,,,,,,,,4,57,125,1,0,0,response1disk,1,28,12,15,1,0,0,rectangle,12,15,1,0,0,6,4,0,0.001105,12,15,1,0,0,0,27,27,115,1,,,,,,,,,,,,,,,,,,,,,
,,,,,,,,,,,,,,,,,,,,,,,,,,,,,,,,,,,,,,,,,,,5fbec1472c47c30cb0dacd41,5ff3a40fbaa7c4a16543c882,2021-01-05_00h26.25.983,Colour_Similarity_Experiment_v1,2020.1.2,Win32,60,5ff3a352adaa099f7659f8cc,,,,,,,,,,,,,,,,,,,,FF,,,,,,,,7,2.16678,,,,,,,,,,,,,,,,,,,,,,,,,,,,9,67,118,1,0,0,response1disk,3,29,-8,-12,1,0,0,rectangle,-8,-12,1,0,0,6,1,0,0.0017,-8,-12,1,0,0,0,28,28,141,1,,,,,,,,,,,,,,,,,,,,,
,,,,,,,,,,,,,,,,,,,,,,,,,,,,,,,,,,,,,,,,,,,5fbec1472c47c30cb0dacd41,5ff3a40fbaa7c4a16543c882,2021-01-05_00h26.25.983,Colour_Similarity_Experiment_v1,2020.1.2,Win32,60,5ff3a352adaa099f7659f8cc,,,,,,,,,,,,,,,,,,,,FF,,,,,,,,0,2.06939,,,,,,,,,,,,,,,,,,,,,,,,,,,,6,-46,110,1,0,0,response7disk,6,30,-18,2,1,0,0,rectangle,-18,2,1,0,0,6,5,0,0.001225,-18,2,1,0,0,0,29,29,91,1,,,,,,,,,,,,,,,,,,,,,
,,,,,,,,,,,,,,,,,,,,,,,,,,,,,,,,,,,,,,,,,,,5fbec1472c47c30cb0dacd41,5ff3a40fbaa7c4a16543c882,2021-01-05_00h26.25.983,Colour_Similarity_Experiment_v1,2020.1.2,Win32,60,5ff3a352adaa099f7659f8cc,,,,,,,,,,,,,,,,,,,,PF,,,,,,,,7,1.996605,,,,,,,,,,,,,,,,,,,,,,,,,,,,3,41,128,1,0,0,response1disk,1,31,2,-9,1,0,0,rectangle,2,-9,1,0,0,6,5,0,0.00173,2,-9,1,0,0,0,30,30,96,1,,,,,,,,,,,,,,,,,,,,,
,,,,,,,,,,,,,,,,,,,,,,,,,,,,,,,,,,,,,,,,,,,5fbec1472c47c30cb0dacd41,5ff3a40fbaa7c4a16543c882,2021-01-05_00h26.25.983,Colour_Similarity_Experiment_v1,2020.1.2,Win32,60,5ff3a352adaa099f7659f8cc,,,,,,,,,,,,,,,,,,,,FF,,,,,,,,7,2.04092,,,,,,,,,,,,,,,,,,,,,,,,,,,,5,64,116,1,0,0,response1disk,8,32,13,-7,1,0,0,rectangle,13,-7,1,0,0,6,6,0,0.001065,13,-7,1,0,0,0,31,31,16,1,,,,,,,,,,,,,,,,,,,,,
,,,,,,,,,,,,,,,,,,,,,,,,,,,,,,,,,,,,,,,,,,,5fbec1472c47c30cb0dacd41,5ff3a40fbaa7c4a16543c882,2021-01-05_00h26.25.983,Colour_Similarity_Experiment_v1,2020.1.2,Win32,60,5ff3a352adaa099f7659f8cc,,,,,,,,,,,,,,,,,,,,FF,,,,,,,,3,2.41777,,,,,,,,,,,,,,,,,,,,,,,,,,,,5,-64,-88,1,0,0,response5disk,6,33,-35,-2,1,0,0,rectangle,-35,-2,1,0,0,6,5,0,0.00134,-35,-2,1,0,0,0,32,32,12,1,,,,,,,,,,,,,,,,,,,,,
,,,,,,,,,,,,,,,,,,,,,,,,,,,,,,,,,,,,,,,,,,,5fbec1472c47c30cb0dacd41,5ff3a40fbaa7c4a16543c882,2021-01-05_00h26.25.983,Colour_Similarity_Experiment_v1,2020.1.2,Win32,60,5ff3a352adaa099f7659f8cc,,,,,,,,,,,,,,,,,,,,PF,,,,,,,,6,4.206925,,,,,,,,,,,,,,,,,,,,,,,,,,,,8,131,69,1,0,0,response1disk,6,34,17,6,1,0,0,rectangle,-47,125,1,0,0,0,0,1,3.10686,-25,3,1,0,0,0,33,33,161,1,response7disk_3,rectangle,,,,,,,,,,,,,,,,,,,
,,,,,,,,,,,,,,,,,,,,,,,,,,,,,,,,,,,,,,,,,,,5fbec1472c47c30cb0dacd41,5ff3a40fbaa7c4a16543c882,2021-01-05_00h26.25.983,Colour_Similarity_Experiment_v1,2020.1.2,Win32,60,5ff3a352adaa099f7659f8cc,,,,,,,,,,,,,,,,,,,,FF,,,,,,,,6,2.98409,,,,,,,,,,,,,,,,,,,,,,,,,,,,4,120,64,1,0,0,response1disk,2,35,-2,-15,1,0,0,rectangle,-2,-15,1,0,0,0,1,0,0.001875,-2,-15,1,0,0,0,34,34,13,1,,,,,,,,,,,,,,,,,,,,,
,,,,,,,,,,,,,,,,,,,,,,,,,,,,,,,,,,,,,,,,,,,5fbec1472c47c30cb0dacd41,5ff3a40fbaa7c4a16543c882,2021-01-05_00h26.25.983,Colour_Similarity_Experiment_v1,2020.1.2,Win32,60,5ff3a352adaa099f7659f8cc,,,,,,,,,,,,,,,,,,,,FF,,,,,,,,1,2.47522,,,,,,,,,,,,,,,,,,,,,,,,,,,,8,-96,26,1,0,0,response7disk,9,36,2,4,1,0,0,rectangle,2,4,1,0,0,0,5,0,0.01136,2,4,1,0,0,0,35,35,105,1,,,,,,,,,,,,,,,,,,,,,
,,,,,,,,,,,,,,,,,,,,,,,,,,,,,,,,,,,,,,,,,,,5fbec1472c47c30cb0dacd41,5ff3a40fbaa7c4a16543c882,2021-01-05_00h26.25.983,Colour_Similarity_Experiment_v1,2020.1.2,Win32,60,5ff3a352adaa099f7659f8cc,,,,,,,,,,,,,,,,,,,,FF,,,,,,,,6,1.750195,,,,,,,,,,,,,,,,,,,,,,,,,,,,8,97,35,1,0,0,response1disk,5,37,-17,-1,1,0,0,rectangle,-17,-1,1,0,0,0,6,0,0.001585,-17,-1,1,0,0,0,36,36,152,1,,,,,,,,,,,,,,,,,,,,,
,,,,,,,,,,,,,,,,,,,,,,,,,,,,,,,,,,,,,,,,,,,5fbec1472c47c30cb0dacd41,5ff3a40fbaa7c4a16543c882,2021-01-05_00h26.25.983,Colour_Similarity_Experiment_v1,2020.1.2,Win32,60,5ff3a352adaa099f7659f8cc,,,,,,,,,,,,,,,,,,,,FF,,,,,,,,5,2.056725,,,,,,,,,,,,,,,,,,,,,,,,,,,,2,116,-65,1,0,0,response3disk,8,38,-20,-3,1,0,0,rectangle,-20,-3,1,0,0,0,3,0,0.00172,-20,-3,1,0,0,0,37,37,62,1,,,,,,,,,,,,,,,,,,,,,
,,,,,,,,,,,,,,,,,,,,,,,,,,,,,,,,,,,,,,,,,,,5fbec1472c47c30cb0dacd41,5ff3a40fbaa7c4a16543c882,2021-01-05_00h26.25.983,Colour_Similarity_Experiment_v1,2020.1.2,Win32,60,5ff3a352adaa099f7659f8cc,,,,,,,,,,,,,,,,,,,,PF,,,,,,,,2,2.026255,,,,,,,,,,,,,,,,,,,,,,,,,,,,4,-132,-41,1,0,0,response5disk,3,39,14,1,1,0,0,rectangle,14,1,1,0,0,0,6,0,0.001365,14,1,1,0,0,0,38,38,89,1,,,,,,,,,,,,,,,,,,,,,
,,,,,,,,,,,,,,,,,,,,,,,,,,,,,,,,,,,,,,,,,,,5fbec1472c47c30cb0dacd41,5ff3a40fbaa7c4a16543c882,2021-01-05_00h26.25.983,Colour_Similarity_Experiment_v1,2020.1.2,Win32,60,5ff3a352adaa099f7659f8cc,,,,,,,,,,,,,,,,,,,,PF,,,,,,,,6,2.14038,,,,,,,,,,,,,,,,,,,,,,,,,,,,9,135,35,1,0,0,response1disk,5,40,-14,-4,1,0,0,rectangle,-14,-4,1,0,0,0,0,0,0.044885,-14,-4,1,0,0,0,39,39,134,1,,,,,,,,,,,,,,,,,,,,,
,,,,,,,,,,,,,,,,,,,,,,,,,,,,,,,,,,,,,,,,,,,5fbec1472c47c30cb0dacd41,5ff3a40fbaa7c4a16543c882,2021-01-05_00h26.25.983,Colour_Similarity_Experiment_v1,2020.1.2,Win32,60,5ff3a352adaa099f7659f8cc,,,,,,,,,,,,,,,,,,,,FF,,,,,,,,0,1.73016,,,,,,,,,,,,,,,,,,,,,,,,,,,,3,-40,117,1,0,0,response7disk,3,41,-9,0,1,0,0,rectangle,-9,0,1,0,0,0,6,0,0.001915,-9,0,1,0,0,0,40,40,68,1,,,,,,,,,,,,,,,,,,,,,
,,,,,,,,,,,,,,,,,,,,,,,,,,,,,,,,,,,,,,,,,,,5fbec1472c47c30cb0dacd41,5ff3a40fbaa7c4a16543c882,2021-01-05_00h26.25.983,Colour_Similarity_Experiment_v1,2020.1.2,Win32,60,5ff3a352adaa099f7659f8cc,,,,,,,,,,,,,,,,,,,,FF,,,,,,,,7,1.79036,,,,,,,,,,,,,,,,,,,,,,,,,,,,4,95,151,1,0,0,response1disk,8,42,20,15,1,0,0,rectangle,20,15,1,0,0,0,2,0,0.00157,20,15,1,0,0,0,41,41,35,1,,,,,,,,,,,,,,,,,,,,,
,,,,,,,,,,,,,,,,,,,,,,,,,,,,,,,,,,,,,,,,,,,5fbec1472c47c30cb0dacd41,5ff3a40fbaa7c4a16543c882,2021-01-05_00h26.25.983,Colour_Similarity_Experiment_v1,2020.1.2,Win32,60,5ff3a352adaa099f7659f8cc,,,,,,,,,,,,,,,,,,,,FF,,,,,,,,7,1.60264,,,,,,,,,,,,,,,,,,,,,,,,,,,,1,59,147,1,0,0,response1disk,4,43,3,12,1,0,0,rectangle,3,12,1,0,0,0,4,0,0.00148,3,12,1,0,0,0,42,42,135,1,,,,,,,,,,,,,,,,,,,,,
,,,,,,,,,,,,,,,,,,,,,,,,,,,,,,,,,,,,,,,,,,,5fbec1472c47c30cb0dacd41,5ff3a40fbaa7c4a16543c882,2021-01-05_00h26.25.983,Colour_Similarity_Experiment_v1,2020.1.2,Win32,60,5ff3a352adaa099f7659f8cc,,,,,,,,,,,,,,,,,,,,PF,,,,,,,,7,2.216085,,,,,,,,,,,,,,,,,,,,,,,,,,,,5,67,110,1,0,0,response1disk,8,44,-16,-7,1,0,0,rectangle,-16,-7,1,0,0,0,3,0,0.00149,-16,-7,1,0,0,0,43,43,149,1,,,,,,,,,,,,,,,,,,,,,
,,,,,,,,,,,,,,,,,,,,,,,,,,,,,,,,,,,,,,,,,,,5fbec1472c47c30cb0dacd41,5ff3a40fbaa7c4a16543c882,2021-01-05_00h26.25.983,Colour_Similarity_Experiment_v1,2020.1.2,Win32,60,5ff3a352adaa099f7659f8cc,,,,,,,,,,,,,,,,,,,,FF,,,,,,,,1,2.141835,,,,,,,,,,,,,,,,,,,,,,,,,,,,6,-109,36,1,0,0,response7disk,7,45,-38,17,1,0,0,rectangle,-38,17,1,0,0,0,7,0,0.001205,-38,17,1,0,0,0,44,44,18,1,,,,,,,,,,,,,,,,,,,,,
,,,,,,,,,,,,,,,,,,,,,,,,,,,,,,,,,,,,,,,,,,,5fbec1472c47c30cb0dacd41,5ff3a40fbaa7c4a16543c882,2021-01-05_00h26.25.983,Colour_Similarity_Experiment_v1,2020.1.2,Win32,60,5ff3a352adaa099f7659f8cc,,,,,,,,,,,,,,,,,,,,FF,,,,,,,,0,1.70805,,,,,,,,,,,,,,,,,,,,,,,,,,,,2,-39,135,1,0,0,response7disk,2,46,15,-2,1,0,0,rectangle,15,-2,1,0,0,0,0,0,0.001455,15,-2,1,0,0,0,45,45,142,1,,,,,,,,,,,,,,,,,,,,,
,,,,,,,,,,,,,,,,,,,,,,,,,,,,,,,,,,,,,,,,,,,5fbec1472c47c30cb0dacd41,5ff3a40fbaa7c4a16543c882,2021-01-05_00h26.25.983,Colour_Similarity_Experiment_v1,2020.1.2,Win32,60,5ff3a352adaa099f7659f8cc,,,,,,,,,,,,,,,,,,,,FF,,,,,,,,6,1.802795,,,,,,,,,,,,,,,,,,,,,,,,,,,,7,99,64,1,0,0,response1disk,8,47,-4,16,1,0,0,rectangle,-145,69,1,0,0,1,1,1,2.178335,1,-4,1,0,0,0,46,46,97,1,response7disk_3,rectangle,,,,,,,,,,,,,,,,,,,
,,,,,,,,,,,,,,,,,,,,,,,,,,,,,,,,,,,,,,,,,,,5fbec1472c47c30cb0dacd41,5ff3a40fbaa7c4a16543c882,2021-01-05_00h26.25.983,Colour_Similarity_Experiment_v1,2020.1.2,Win32,60,5ff3a352adaa099f7659f8cc,,,,,,,,,,,,,,,,,,,,FF,,,,,,,,3,2.85297,,,,,,,,,,,,,,,,,,,,,,,,,,,,1,-37,-90,1,0,0,response5disk,8,48,17,5,1,0,0,rectangle,17,5,1,0,0,1,7,0,0.001685,17,5,1,0,0,0,47,47,27,1,,,,,,,,,,,,,,,,,,,,,
,,,,,,,,,,,,,,,,,,,,,,,,,,,,,,,,,,,,,,,,,,,5fbec1472c47c30cb0dacd41,5ff3a40fbaa7c4a16543c882,2021-01-05_00h26.25.983,Colour_Similarity_Experiment_v1,2020.1.2,Win32,60,5ff3a352adaa099f7659f8cc,,,,,,,,,,,,,,,,,,,,PF,,,,,,,,6,2.761085,,,,,,,,,,,,,,,,,,,,,,,,,,,,2,133,42,1,0,0,response1disk,4,49,-47,-16,1,0,0,rectangle,-47,-16,1,0,0,1,0,0,0.00172,-47,-16,1,0,0,0,48,48,127,1,,,,,,,,,,,,,,,,,,,,,
,,,,,,,,,,,,,,,,,,,,,,,,,,,,,,,,,,,,,,,,,,,5fbec1472c47c30cb0dacd41,5ff3a40fbaa7c4a16543c882,2021-01-05_00h26.25.983,Colour_Similarity_Experiment_v1,2020.1.2,Win32,60,5ff3a352adaa099f7659f8cc,,,,,,,,,,,,,,,,,,,,PF,,,,,,,,0,2.25909,,,,,,,,,,,,,,,,,,,,,,,,,,,,7,-47,131,1,0,0,response7disk,7,50,-26,2,1,0,0,rectangle,-26,2,1,0,0,1,2,0,0.00191,-26,2,1,0,0,0,49,49,51,1,,,,,,,,,,,,,,,,,,,,,
,,,,,,,,,,,,,,,,,,,,,,,,,,,,,,,,,,,,,,,,,,,5fbec1472c47c30cb0dacd41,5ff3a40fbaa7c4a16543c882,2021-01-05_00h26.25.983,Colour_Similarity_Experiment_v1,2020.1.2,Win32,60,5ff3a352adaa099f7659f8cc,,,,,,,,,,,,,,,,,,,,FF,,,,,,,,4,2.765525,,,,,,,,,,,,,,,,,,,,,,,,,,,,3,57,-123,1,0,0,response3disk,7,51,14,-9,1,0,0,rectangle,14,-9,1,0,0,1,3,0,0.001115,14,-9,1,0,0,0,50,50,118,1,,,,,,,,,,,,,,,,,,,,,
,,,,,,,,,,,,,,,,,,,,,,,,,,,,,,,,,,,,,,,,,,,5fbec1472c47c30cb0dacd41,5ff3a40fbaa7c4a16543c882,2021-01-05_00h26.25.983,Colour_Similarity_Experiment_v1,2020.1.2,Win32,60,5ff3a352adaa099f7659f8cc,,,,,,,,,,,,,,,,,,,,PF,,,,,,,,4,2.540835,,,,,,,,,,,,,,,,,,,,,,,,,,,,4,50,-98,1,0,0,response3disk,7,52,-4,-17,1,0,0,rectangle,-4,-17,1,0,0,1,7,0,0.002825,-4,-17,1,0,0,0,51,51,38,1,,,,,,,,,,,,,,,,,,,,,
,,,,,,,,,,,,,,,,,,,,,,,,,,,,,,,,,,,,,,,,,,,5fbec1472c47c30cb0dacd41,5ff3a40fbaa7c4a16543c882,2021-01-05_00h26.25.983,Colour_Similarity_Experiment_v1,2020.1.2,Win32,60,5ff3a352adaa099f7659f8cc,,,,,,,,,,,,,,,,,,,,PF,,,,,,,,5,2.344205,,,,,,,,,,,,,,,,,,,,,,,,,,,,8,114,-57,1,0,0,response3disk,2,53,-10,15,1,0,0,rectangle,-10,15,1,0,0,1,6,0,0.001455,-10,15,1,0,0,0,52,52,83,1,,,,,,,,,,,,,,,,,,,,,
,,,,,,,,,,,,,,,,,,,,,,,,,,,,,,,,,,,,,,,,,,,5fbec1472c47c30cb0dacd41,5ff3a40fbaa7c4a16543c882,2021-01-05_00h26.25.983,Colour_Similarity_Experiment_v1,2020.1.2,Win32,60,5ff3a352adaa099f7659f8cc,,,,,,,,,,,,,,,,,,,,FF,,,,,,,,7,2.11736,,,,,,,,,,,,,,,,,,,,,,,,,,,,6,110,138,1,0,0,response1disk,1,54,-6,-12,1,0,0,rectangle,-6,-12,1,0,0,1,3,0,0.00114,-6,-12,1,0,0,0,53,53,5,1,,,,,,,,,,,,,,,,,,,,,
,,,,,,,,,,,,,,,,,,,,,,,,,,,,,,,,,,,,,,,,,,,5fbec1472c47c30cb0dacd41,5ff3a40fbaa7c4a16543c882,2021-01-05_00h26.25.983,Colour_Similarity_Experiment_v1,2020.1.2,Win32,60,5ff3a352adaa099f7659f8cc,,,,,,,,,,,,,,,,,,,,FF,,,,,,,,3,1.62046,,,,,,,,,,,,,,,,,,,,,,,,,,,,2,-34,-102,1,0,0,response5disk,3,55,-36,-17,1,0,0,rectangle,-116,67,1,0,0,1,1,1,1.56711,31,4,1,0,0,0,54,54,104,1,response7disk_3,rectangle,,,,,,,,,,,,,,,,,,,
,,,,,,,,,,,,,,,,,,,,,,,,,,,,,,,,,,,,,,,,,,,5fbec1472c47c30cb0dacd41,5ff3a40fbaa7c4a16543c882,2021-01-05_00h26.25.983,Colour_Similarity_Experiment_v1,2020.1.2,Win32,60,5ff3a352adaa099f7659f8cc,,,,,,,,,,,,,,,,,,,,FF,,,,,,,,6,1.751005,,,,,,,,,,,,,,,,,,,,,,,,,,,,5,90,51,1,0,0,response1disk,2,56,9,-6,1,0,0,rectangle,131,56,1,0,0,6,6,1,1.962085,-9,0,1,0,0,0,55,55,55,1,response1disk_3,rectangle,,,,,,,,,,,,,,,,,,,
,,,,,,,,,,,,,,,,,,,,,,,,,,,,,,,,,,,,,,,,,,,5fbec1472c47c30cb0dacd41,5ff3a40fbaa7c4a16543c882,2021-01-05_00h26.25.983,Colour_Similarity_Experiment_v1,2020.1.2,Win32,60,5ff3a352adaa099f7659f8cc,,,,,,,,,,,,,,,,,,,,PF,,,,,,,,1,2.647055,,,,,,,,,,,,,,,,,,,,,,,,,,,,8,-101,56,1,0,0,response7disk,9,57,-16,-12,1,0,0,rectangle,-16,-12,1,0,0,6,3,0,0.001655,-16,-12,1,0,0,0,56,56,42,1,,,,,,,,,,,,,,,,,,,,,
,,,,,,,,,,,,,,,,,,,,,,,,,,,,,,,,,,,,,,,,,,,5fbec1472c47c30cb0dacd41,5ff3a40fbaa7c4a16543c882,2021-01-05_00h26.25.983,Colour_Similarity_Experiment_v1,2020.1.2,Win32,60,5ff3a352adaa099f7659f8cc,,,,,,,,,,,,,,,,,,,,FF,,,,,,,,0,1.78214,,,,,,,,,,,,,,,,,,,,,,,,,,,,1,-46,104,1,0,0,response7disk,1,58,-5,19,1,0,0,rectangle,-5,19,1,0,0,6,5,0,0.001495,-5,19,1,0,0,0,57,57,151,1,,,,,,,,,,,,,,,,,,,,,
,,,,,,,,,,,,,,,,,,,,,,,,,,,,,,,,,,,,,,,,,,,5fbec1472c47c30cb0dacd41,5ff3a40fbaa7c4a16543c882,2021-01-05_00h26.25.983,Colour_Similarity_Experiment_v1,2020.1.2,Win32,60,5ff3a352adaa099f7659f8cc,,,,,,,,,,,,,,,,,,,,PF,,,,,,,,3,2.793815,,,,,,,,,,,,,,,,,,,,,,,,,,,,8,-59,-108,1,0,0,response5disk,1,59,0,8,1,0,0,rectangle,0,8,1,0,0,6,1,0,0.001445,0,8,1,0,0,0,58,58,57,1,,,,,,,,,,,,,,,,,,,,,
,,,,,,,,,,,,,,,,,,,,,,,,,,,,,,,,,,,,,,,,,,,5fbec1472c47c30cb0dacd41,5ff3a40fbaa7c4a16543c882,2021-01-05_00h26.25.983,Colour_Similarity_Experiment_v1,2020.1.2,Win32,60,5ff3a352adaa099f7659f8cc,,,,,,,,,,,,,,,,,,,,FF,,,,,,,,5,3.708575,,,,,,,,,,,,,,,,,,,,,,,,,,,,8,105,-47,1,0,0,response3disk,6,60,-11,7,1,0,0,rectangle,-11,7,1,0,0,6,3,0,0.00175,-11,7,1,0,0,0,59,59,37,1,,,,,,,,,,,,,,,,,,,,,
,,,,,,,,,,,,,,,,,,,,,,,,,,,,,,,,,,,,,,,,,,,5fbec1472c47c30cb0dacd41,5ff3a40fbaa7c4a16543c882,2021-01-05_00h26.25.983,Colour_Similarity_Experiment_v1,2020.1.2,Win32,60,5ff3a352adaa099f7659f8cc,,,,,,,,,,,,,,,,,,,,FF,,,,,,,,5,6.233975,,,,,,,,,,,,,,,,,,,,,,,,,,,,5,120,-58,1,0,0,response3disk,5,61,-39,5,1,0,0,rectangle,-39,5,1,0,0,6,6,0,0.00112,-39,5,1,0,0,0,60,60,19,1,,,,,,,,,,,,,,,,,,,,,
,,,,,,,,,,,,,,,,,,,,,,,,,,,,,,,,,,,,,,,,,,,5fbec1472c47c30cb0dacd41,5ff3a40fbaa7c4a16543c882,2021-01-05_00h26.25.983,Colour_Similarity_Experiment_v1,2020.1.2,Win32,60,5ff3a352adaa099f7659f8cc,,,,,,,,,,,,,,,,,,,,PF,,,,,,,,0,1.739875,,,,,,,,,,,,,,,,,,,,,,,,,,,,1,-48,71,1,0,0,response7disk,1,62,-11,2,1,0,0,rectangle,51,-110,1,0,0,4,4,1,2.39315,8,1,1,0,0,0,61,61,76,1,response3disk_3,rectangle,,,,,,,,,,,,,,,,,,,
,,,,,,,,,,,,,,,,,,,,,,,,,,,,,,,,,,,,,,,,,,,5fbec1472c47c30cb0dacd41,5ff3a40fbaa7c4a16543c882,2021-01-05_00h26.25.983,Colour_Similarity_Experiment_v1,2020.1.2,Win32,60,5ff3a352adaa099f7659f8cc,,,,,,,,,,,,,,,,,,,,FF,,,,,,,,5,1.68043,,,,,,,,,,,,,,,,,,,,,,,,,,,,6,86,-52,1,0,0,response3disk,2,63,-35,18,1,0,0,rectangle,-35,18,1,0,0,4,2,0,0.00165,-35,18,1,0,0,0,62,62,112,1,,,,,,,,,,,,,,,,,,,,,
,,,,,,,,,,,,,,,,,,,,,,,,,,,,,,,,,,,,,,,,,,,5fbec1472c47c30cb0dacd41,5ff3a40fbaa7c4a16543c882,2021-01-05_00h26.25.983,Colour_Similarity_Experiment_v1,2020.1.2,Win32,60,5ff3a352adaa099f7659f8cc,,,,,,,,,,,,,,,,,,,,PF,,,,,,,,6,1.748795,,,,,,,,,,,,,,,,,,,,,,,,,,,,5,100,61,1,0,0,response1disk,1,64,17,-5,1,0,0,rectangle,98,48,1,0,0,6,6,1,2.107795,7,8,1,0,0,0,63,63,159,1,response1disk_3,rectangle,,,,,,,,,,,,,,,,,,,
,,,,,,,,,,,,,,,,,,,,,,,,,,,,,,,,,,,,,,,,,,,5fbec1472c47c30cb0dacd41,5ff3a40fbaa7c4a16543c882,2021-01-05_00h26.25.983,Colour_Similarity_Experiment_v1,2020.1.2,Win32,60,5ff3a352adaa099f7659f8cc,,,,,,,,,,,,,,,,,,,,FF,,,,,,,,2,2.57644,,,,,,,,,,,,,,,,,,,,,,,,,,,,9,-99,-76,1,0,0,response5disk,1,65,-29,-6,1,0,0,rectangle,-29,-6,1,0,0,6,0,0,0.00161,-29,-6,1,0,0,0,64,64,111,1,,,,,,,,,,,,,,,,,,,,,
,,,,,,,,,,,,,,,,,,,,,,,,,,,,,,,,,,,,,,,,,,,5fbec1472c47c30cb0dacd41,5ff3a40fbaa7c4a16543c882,2021-01-05_00h26.25.983,Colour_Similarity_Experiment_v1,2020.1.2,Win32,60,5ff3a352adaa099f7659f8cc,,,,,,,,,,,,,,,,,,,,FF,,,,,,,,6,2.22371,,,,,,,,,,,,,,,,,,,,,,,,,,,,3,136,52,1,0,0,response1disk,1,66,45,-6,1,0,0,rectangle,45,-6,1,0,0,6,6,0,0.00122,45,-6,1,0,0,0,65,65,125,1,,,,,,,,,,,,,,,,,,,,,
,,,,,,,,,,,,,,,,,,,,,,,,,,,,,,,,,,,,,,,,,,,5fbec1472c47c30cb0dacd41,5ff3a40fbaa7c4a16543c882,2021-01-05_00h26.25.983,Colour_Similarity_Experiment_v1,2020.1.2,Win32,60,5ff3a352adaa099f7659f8cc,,,,,,,,,,,,,,,,,,,,FF,,,,,,,,7,2.24562,,,,,,,,,,,,,,,,,,,,,,,,,,,,1,51,109,1,0,0,response1disk,7,67,9,-7,1,0,0,rectangle,9,-7,1,0,0,6,3,0,0.0017,9,-7,1,0,0,0,66,66,137,1,,,,,,,,,,,,,,,,,,,,,
,,,,,,,,,,,,,,,,,,,,,,,,,,,,,,,,,,,,,,,,,,,5fbec1472c47c30cb0dacd41,5ff3a40fbaa7c4a16543c882,2021-01-05_00h26.25.983,Colour_Similarity_Experiment_v1,2020.1.2,Win32,60,5ff3a352adaa099f7659f8cc,,,,,,,,,,,,,,,,,,,,PF,,,,,,,,4,2.605085,,,,,,,,,,,,,,,,,,,,,,,,,,,,2,54,-111,1,0,0,response3disk,8,68,9,-16,1,0,0,rectangle,9,-16,1,0,0,6,2,0,0.00146,9,-16,1,0,0,0,67,67,52,1,,,,,,,,,,,,,,,,,,,,,
,,,,,,,,,,,,,,,,,,,,,,,,,,,,,,,,,,,,,,,,,,,5fbec1472c47c30cb0dacd41,5ff3a40fbaa7c4a16543c882,2021-01-05_00h26.25.983,Colour_Similarity_Experiment_v1,2020.1.2,Win32,60,5ff3a352adaa099f7659f8cc,,,,,,,,,,,,,,,,,,,,FF,,,,,,,,6,2.19658,,,,,,,,,,,,,,,,,,,,,,,,,,,,8,77,35,1,0,0,response1disk,7,69,18,-4,1,0,0,rectangle,18,-4,1,0,0,6,5,0,0.00145,18,-4,1,0,0,0,68,68,86,1,,,,,,,,,,,,,,,,,,,,,
,,,,,,,,,,,,,,,,,,,,,,,,,,,,,,,,,,,,,,,,,,,5fbec1472c47c30cb0dacd41,5ff3a40fbaa7c4a16543c882,2021-01-05_00h26.25.983,Colour_Similarity_Experiment_v1,2020.1.2,Win32,60,5ff3a352adaa099f7659f8cc,,,,,,,,,,,,,,,,,,,,PF,,,,,,,,6,2.31522,,,,,,,,,,,,,,,,,,,,,,,,,,,,9,76,63,1,0,0,response1disk,6,70,6,7,1,0,0,rectangle,6,7,1,0,0,6,6,0,0.00748,6,7,1,0,0,0,69,69,148,1,,,,,,,,,,,,,,,,,,,,,
,,,,,,,,,,,,,,,,,,,,,,,,,,,,,,,,,,,,,,,,,,,5fbec1472c47c30cb0dacd41,5ff3a40fbaa7c4a16543c882,2021-01-05_00h26.25.983,Colour_Similarity_Experiment_v1,2020.1.2,Win32,60,5ff3a352adaa099f7659f8cc,,,,,,,,,,,,,,,,,,,,PF,,,,,,,,3,2.493525,,,,,,,,,,,,,,,,,,,,,,,,,,,,5,-79,-133,1,0,0,response5disk,3,71,16,6,1,0,0,rectangle,16,6,1,0,0,6,6,0,0.001485,16,6,1,0,0,0,70,70,109,1,,,,,,,,,,,,,,,,,,,,,
,,,,,,,,,,,,,,,,,,,,,,,,,,,,,,,,,,,,,,,,,,,5fbec1472c47c30cb0dacd41,5ff3a40fbaa7c4a16543c882,2021-01-05_00h26.25.983,Colour_Similarity_Experiment_v1,2020.1.2,Win32,60,5ff3a352adaa099f7659f8cc,,,,,,,,,,,,,,,,,,,,FF,,,,,,,,4,2.010085,,,,,,,,,,,,,,,,,,,,,,,,,,,,6,41,-77,1,0,0,response3disk,4,72,2,5,1,0,0,rectangle,2,5,1,0,0,6,5,0,0.0018,2,5,1,0,0,0,71,71,56,1,,,,,,,,,,,,,,,,,,,,,
,,,,,,,,,,,,,,,,,,,,,,,,,,,,,,,,,,,,,,,,,,,5fbec1472c47c30cb0dacd41,5ff3a40fbaa7c4a16543c882,2021-01-05_00h26.25.983,Colour_Similarity_Experiment_v1,2020.1.2,Win32,60,5ff3a352adaa099f7659f8cc,,,,,,,,,,,,,,,,,,,,PF,,,,,,,,4,1.53286,,,,,,,,,,,,,,,,,,,,,,,,,,,,4,37,-71,1,0,0,response3disk,6,73,12,3,1,0,0,rectangle,12,3,1,0,0,6,1,0,0.00155,12,3,1,0,0,0,72,72,120,1,,,,,,,,,,,,,,,,,,,,,
,,,,,,,,,,,,,,,,,,,,,,,,,,,,,,,,,,,,,,,,,,,5fbec1472c47c30cb0dacd41,5ff3a40fbaa7c4a16543c882,2021-01-05_00h26.25.983,Colour_Similarity_Experiment_v1,2020.1.2,Win32,60,5ff3a352adaa099f7659f8cc,,,,,,,,,,,,,,,,,,,,PF,,,,,,,,6,2.293655,,,,,,,,,,,,,,,,,,,,,,,,,,,,3,95,80,1,0,0,response1disk,7,74,-2,-9,1,0,0,rectangle,-2,-9,1,0,0,6,6,0,0.00334,-2,-9,1,0,0,0,73,73,41,1,,,,,,,,,,,,,,,,,,,,,
,,,,,,,,,,,,,,,,,,,,,,,,,,,,,,,,,,,,,,,,,,,5fbec1472c47c30cb0dacd41,5ff3a40fbaa7c4a16543c882,2021-01-05_00h26.25.983,Colour_Similarity_Experiment_v1,2020.1.2,Win32,60,5ff3a352adaa099f7659f8cc,,,,,,,,,,,,,,,,,,,,FF,,,,,,,,2,2.493225,,,,,,,,,,,,,,,,,,,,,,,,,,,,4,-118,-35,1,0,0,response5disk,5,75,-7,4,1,0,0,rectangle,-7,4,1,0,0,6,6,0,0.001475,-7,4,1,0,0,0,74,74,116,1,,,,,,,,,,,,,,,,,,,,,
,,,,,,,,,,,,,,,,,,,,,,,,,,,,,,,,,,,,,,,,,,,5fbec1472c47c30cb0dacd41,5ff3a40fbaa7c4a16543c882,2021-01-05_00h26.25.983,Colour_Similarity_Experiment_v1,2020.1.2,Win32,60,5ff3a352adaa099f7659f8cc,,,,,,,,,,,,,,,,,,,,FF,,,,,,,,2,1.59706,,,,,,,,,,,,,,,,,,,,,,,,,,,,5,-78,-45,1,0,0,response5disk,4,76,-17,-1,1,0,0,rectangle,-17,-1,1,0,0,6,3,0,0.0015,-17,-1,1,0,0,0,75,75,8,1,,,,,,,,,,,,,,,,,,,,,
,,,,,,,,,,,,,,,,,,,,,,,,,,,,,,,,,,,,,,,,,,,5fbec1472c47c30cb0dacd41,5ff3a40fbaa7c4a16543c882,2021-01-05_00h26.25.983,Colour_Similarity_Experiment_v1,2020.1.2,Win32,60,5ff3a352adaa099f7659f8cc,,,,,,,,,,,,,,,,,,,,FF,,,,,,,,1,1.83688,,,,,,,,,,,,,,,,,,,,,,,,,,,,3,-116,54,1,0,0,response7disk,4,77,-1,-1,1,0,0,rectangle,-1,-1,1,0,0,6,0,0,0.001125,-1,-1,1,0,0,0,76,76,110,1,,,,,,,,,,,,,,,,,,,,,
,,,,,,,,,,,,,,,,,,,,,,,,,,,,,,,,,,,,,,,,,,,5fbec1472c47c30cb0dacd41,5ff3a40fbaa7c4a16543c882,2021-01-05_00h26.25.983,Colour_Similarity_Experiment_v1,2020.1.2,Win32,60,5ff3a352adaa099f7659f8cc,,,,,,,,,,,,,,,,,,,,PF,,,,,,,,5,2.12978,,,,,,,,,,,,,,,,,,,,,,,,,,,,2,120,-46,1,0,0,response3disk,9,78,27,-14,1,0,0,rectangle,27,-14,1,0,0,6,5,0,0.00162,27,-14,1,0,0,0,77,77,39,1,,,,,,,,,,,,,,,,,,,,,
,,,,,,,,,,,,,,,,,,,,,,,,,,,,,,,,,,,,,,,,,,,5fbec1472c47c30cb0dacd41,5ff3a40fbaa7c4a16543c882,2021-01-05_00h26.25.983,Colour_Similarity_Experiment_v1,2020.1.2,Win32,60,5ff3a352adaa099f7659f8cc,,,,,,,,,,,,,,,,,,,,FF,,,,,,,,7,1.673775,,,,,,,,,,,,,,,,,,,,,,,,,,,,8,87,143,1,0,0,response1disk,3,79,7,4,1,0,0,rectangle,7,4,1,0,0,6,4,0,0.00168,7,4,1,0,0,0,78,78,154,1,,,,,,,,,,,,,,,,,,,,,
,,,,,,,,,,,,,,,,,,,,,,,,,,,,,,,,,,,,,,,,,,,5fbec1472c47c30cb0dacd41,5ff3a40fbaa7c4a16543c882,2021-01-05_00h26.25.983,Colour_Similarity_Experiment_v1,2020.1.2,Win32,60,5ff3a352adaa099f7659f8cc,,,,,,,,,,,,,,,,,,,,PF,,,,,,,,7,1.45831,,,,,,,,,,,,,,,,,,,,,,,,,,,,9,57,129,1,0,0,response1disk,3,80,26,-14,1,0,0,rectangle,26,-14,1,0,0,6,0,0,0.001405,26,-14,1,0,0,0,79,79,119,1,,,,,,,,,,,,,,,,,,,,,
,,,,,,,,,,,,,,,,,,,,,,,,,,,,,,,,,,,,,,,,,,,5fbec1472c47c30cb0dacd41,5ff3a40fbaa7c4a16543c882,2021-01-05_00h26.25.983,Colour_Similarity_Experiment_v1,2020.1.2,Win32,60,5ff3a352adaa099f7659f8cc,,,,,,,,,,,,,,,,,,,,PF,,,,,,,,2,1.866595,,,,,,,,,,,,,,,,,,,,,,,,,,,,3,-91,-80,1,0,0,response5disk,4,81,-28,-10,1,0,0,rectangle,-28,-10,1,0,0,6,7,0,0.001085,-28,-10,1,0,0,0,80,80,30,1,,,,,,,,,,,,,,,,,,,,,
,,,,,,,,,,,,,,,,,,,,,,,,,,,,,,,,,,,,,,,,,,,5fbec1472c47c30cb0dacd41,5ff3a40fbaa7c4a16543c882,2021-01-05_00h26.25.983,Colour_Similarity_Experiment_v1,2020.1.2,Win32,60,5ff3a352adaa099f7659f8cc,,,,,,,,,,,,,,,,,,,,FF,,,,,,,,3,2.526755,,,,,,,,,,,,,,,,,,,,,,,,,,,,2,-37,-109,1,0,0,response5disk,1,82,6,-8,1,0,0,rectangle,6,-8,1,0,0,6,4,0,0.00152,6,-8,1,0,0,0,81,81,85,1,,,,,,,,,,,,,,,,,,,,,
,,,,,,,,,,,,,,,,,,,,,,,,,,,,,,,,,,,,,,,,,,,5fbec1472c47c30cb0dacd41,5ff3a40fbaa7c4a16543c882,2021-01-05_00h26.25.983,Colour_Similarity_Experiment_v1,2020.1.2,Win32,60,5ff3a352adaa099f7659f8cc,,,,,,,,,,,,,,,,,,,,PF,,,,,,,,5,4.70474,,,,,,,,,,,,,,,,,,,,,,,,,,,,3,101,-61,1,0,0,response3disk,2,83,0,10,1,0,0,rectangle,-45,164,1,0,0,0,0,1,2.56889,26,-5,1,0,0,0,82,82,36,1,response7disk_3,rectangle,,,,,,,,,,,,,,,,,,,
,,,,,,,,,,,,,,,,,,,,,,,,,,,,,,,,,,,,,,,,,,,5fbec1472c47c30cb0dacd41,5ff3a40fbaa7c4a16543c882,2021-01-05_00h26.25.983,Colour_Similarity_Experiment_v1,2020.1.2,Win32,60,5ff3a352adaa099f7659f8cc,,,,,,,,,,,,,,,,,,,,PF,,,,,,,,6,1.74644,,,,,,,,,,,,,,,,,,,,,,,,,,,,1,61,38,1,0,0,response1disk,6,84,22,8,1,0,0,rectangle,22,8,1,0,0,0,1,0,0.00128,22,8,1,0,0,0,83,83,144,1,,,,,,,,,,,,,,,,,,,,,
,,,,,,,,,,,,,,,,,,,,,,,,,,,,,,,,,,,,,,,,,,,5fbec1472c47c30cb0dacd41,5ff3a40fbaa7c4a16543c882,2021-01-05_00h26.25.983,Colour_Similarity_Experiment_v1,2020.1.2,Win32,60,5ff3a352adaa099f7659f8cc,,,,,,,,,,,,,,,,,,,,PF,,,,,,,,5,2.04085,,,,,,,,,,,,,,,,,,,,,,,,,,,,7,81,-46,1,0,0,response3disk,4,85,13,15,1,0,0,rectangle,13,15,1,0,0,0,3,0,0.001085,13,15,1,0,0,0,84,84,43,1,,,,,,,,,,,,,,,,,,,,,
,,,,,,,,,,,,,,,,,,,,,,,,,,,,,,,,,,,,,,,,,,,5fbec1472c47c30cb0dacd41,5ff3a40fbaa7c4a16543c882,2021-01-05_00h26.25.983,Colour_Similarity_Experiment_v1,2020.1.2,Win32,60,5ff3a352adaa099f7659f8cc,,,,,,,,,,,,,,,,,,,,PF,,,,,,,,7,2.122905,,,,,,,,,,,,,,,,,,,,,,,,,,,,3,79,134,1,0,0,response1disk,9,86,16,0,1,0,0,rectangle,16,0,1,0,0,0,0,0,0.001515,16,0,1,0,0,0,85,85,79,1,,,,,,,,,,,,,,,,,,,,,
,,,,,,,,,,,,,,,,,,,,,,,,,,,,,,,,,,,,,,,,,,,5fbec1472c47c30cb0dacd41,5ff3a40fbaa7c4a16543c882,2021-01-05_00h26.25.983,Colour_Similarity_Experiment_v1,2020.1.2,Win32,60,5ff3a352adaa099f7659f8cc,,,,,,,,,,,,,,,,,,,,FF,,,,,,,,6,1.627035,,,,,,,,,,,,,,,,,,,,,,,,,,,,1,86,51,1,0,0,response1disk,6,87,11,-8,1,0,0,rectangle,11,-8,1,0,0,0,1,0,0.001605,11,-8,1,0,0,0,86,86,58,1,,,,,,,,,,,,,,,,,,,,,
,,,,,,,,,,,,,,,,,,,,,,,,,,,,,,,,,,,,,,,,,,,5fbec1472c47c30cb0dacd41,5ff3a40fbaa7c4a16543c882,2021-01-05_00h26.25.983,Colour_Similarity_Experiment_v1,2020.1.2,Win32,60,5ff3a352adaa099f7659f8cc,,,,,,,,,,,,,,,,,,,,PF,,,,,,,,6,1.75061,,,,,,,,,,,,,,,,,,,,,,,,,,,,3,82,52,1,0,0,response1disk,8,88,-10,14,1,0,0,rectangle,-10,14,1,0,0,0,7,0,0.001285,-10,14,1,0,0,0,87,87,3,1,,,,,,,,,,,,,,,,,,,,,
,,,,,,,,,,,,,,,,,,,,,,,,,,,,,,,,,,,,,,,,,,,5fbec1472c47c30cb0dacd41,5ff3a40fbaa7c4a16543c882,2021-01-05_00h26.25.983,Colour_Similarity_Experiment_v1,2020.1.2,Win32,60,5ff3a352adaa099f7659f8cc,,,,,,,,,,,,,,,,,,,,PF,,,,,,,,7,2.09196,,,,,,,,,,,,,,,,,,,,,,,,,,,,1,46,85,1,0,0,response1disk,4,89,22,-6,1,0,0,rectangle,22,-6,1,0,0,0,4,0,0.001535,22,-6,1,0,0,0,88,88,139,1,,,,,,,,,,,,,,,,,,,,,
,,,,,,,,,,,,,,,,,,,,,,,,,,,,,,,,,,,,,,,,,,,5fbec1472c47c30cb0dacd41,5ff3a40fbaa7c4a16543c882,2021-01-05_00h26.25.983,Colour_Similarity_Experiment_v1,2020.1.2,Win32,60,5ff3a352adaa099f7659f8cc,,,,,,,,,,,,,,,,,,,,FF,,,,,,,,0,1.703,,,,,,,,,,,,,,,,,,,,,,,,,,,,7,-36,113,1,0,0,response7disk,7,90,-11,-2,1,0,0,rectangle,-11,-2,1,0,0,0,6,0,0.00217,-11,-2,1,0,0,0,89,89,34,1,,,,,,,,,,,,,,,,,,,,,
,,,,,,,,,,,,,,,,,,,,,,,,,,,,,,,,,,,,,,,,,,,5fbec1472c47c30cb0dacd41,5ff3a40fbaa7c4a16543c882,2021-01-05_00h26.25.983,Colour_Similarity_Experiment_v1,2020.1.2,Win32,60,5ff3a352adaa099f7659f8cc,,,,,,,,,,,,,,,,,,,,PF,,,,,,,,6,2.64801,,,,,,,,,,,,,,,,,,,,,,,,,,,,2,114,63,1,0,0,response1disk,7,91,1,-4,1,0,0,rectangle,1,-4,1,0,0,0,6,0,0.00111,1,-4,1,0,0,0,90,90,107,1,,,,,,,,,,,,,,,,,,,,,
,,,,,,,,,,,,,,,,,,,,,,,,,,,,,,,,,,,,,,,,,,,5fbec1472c47c30cb0dacd41,5ff3a40fbaa7c4a16543c882,2021-01-05_00h26.25.983,Colour_Similarity_Experiment_v1,2020.1.2,Win32,60,5ff3a352adaa099f7659f8cc,,,,,,,,,,,,,,,,,,,,FF,,,,,,,,7,4.148305,,,,,,,,,,,,,,,,,,,,,,,,,,,,1,70,115,1,0,0,response1disk,3,92,-4,-3,1,0,0,rectangle,-4,-3,1,0,0,0,6,0,0.001385,-4,-3,1,0,0,0,91,91,99,1,,,,,,,,,,,,,,,,,,,,,
,,,,,,,,,,,,,,,,,,,,,,,,,,,,,,,,,,,,,,,,,,,5fbec1472c47c30cb0dacd41,5ff3a40fbaa7c4a16543c882,2021-01-05_00h26.25.983,Colour_Similarity_Experiment_v1,2020.1.2,Win32,60,5ff3a352adaa099f7659f8cc,,,,,,,,,,,,,,,,,,,,FF,,,,,,,,5,4.06625,,,,,,,,,,,,,,,,,,,,,,,,,,,,6,94,-54,1,0,0,response3disk,3,93,5,19,1,0,0,rectangle,5,19,1,0,0,0,4,0,0.00166,5,19,1,0,0,0,92,92,21,1,,,,,,,,,,,,,,,,,,,,,
,,,,,,,,,,,,,,,,,,,,,,,,,,,,,,,,,,,,,,,,,,,5fbec1472c47c30cb0dacd41,5ff3a40fbaa7c4a16543c882,2021-01-05_00h26.25.983,Colour_Similarity_Experiment_v1,2020.1.2,Win32,60,5ff3a352adaa099f7659f8cc,,,,,,,,,,,,,,,,,,,,PF,,,,,,,,5,2.499235,,,,,,,,,,,,,,,,,,,,,,,,,,,,1,111,-81,1,0,0,response3disk,3,94,28,-3,1,0,0,rectangle,28,-3,1,0,0,0,2,0,0.00177,28,-3,1,0,0,0,93,93,1,1,,,,,,,,,,,,,,,,,,,,,
,,,,,,,,,,,,,,,,,,,,,,,,,,,,,,,,,,,,,,,,,,,5fbec1472c47c30cb0dacd41,5ff3a40fbaa7c4a16543c882,2021-01-05_00h26.25.983,Colour_Similarity_Experiment_v1,2020.1.2,Win32,60,5ff3a352adaa099f7659f8cc,,,,,,,,,,,,,,,,,,,,PF,,,,,,,,7,3.70452,,,,,,,,,,,,,,,,,,,,,,,,,,,,8,65,140,1,0,0,response1disk,5,95,16,11,1,0,0,rectangle,16,11,1,0,0,0,7,0,0.001645,16,11,1,0,0,0,94,94,98,1,,,,,,,,,,,,,,,,,,,,,
,,,,,,,,,,,,,,,,,,,,,,,,,,,,,,,,,,,,,,,,,,,5fbec1472c47c30cb0dacd41,5ff3a40fbaa7c4a16543c882,2021-01-05_00h26.25.983,Colour_Similarity_Experiment_v1,2020.1.2,Win32,60,5ff3a352adaa099f7659f8cc,,,,,,,,,,,,,,,,,,,,PF,,,,,,,,2,2.48058,,,,,,,,,,,,,,,,,,,,,,,,,,,,6,-139,-53,1,0,0,response5disk,5,96,-25,14,1,0,0,rectangle,-25,14,1,0,0,0,4,0,0.012085,-25,14,1,0,0,0,95,95,59,1,,,,,,,,,,,,,,,,,,,,,
,,,,,,,,,,,,,,,,,,,,,,,,,,,,,,,,,,,,,,,,,,,5fbec1472c47c30cb0dacd41,5ff3a40fbaa7c4a16543c882,2021-01-05_00h26.25.983,Colour_Similarity_Experiment_v1,2020.1.2,Win32,60,5ff3a352adaa099f7659f8cc,,,,,,,,,,,,,,,,,,,,FF,,,,,,,,6,3.243205,,,,,,,,,,,,,,,,,,,,,,,,,,,,9,83,61,1,0,0,response1disk,2,97,2,-7,1,0,0,rectangle,125,61,1,0,0,6,6,1,2.69831,18,3,1,0,0,0,96,96,11,1,response1disk_3,rectangle,,,,,,,,,,,,,,,,,,,
,,,,,,,,,,,,,,,,,,,,,,,,,,,,,,,,,,,,,,,,,,,5fbec1472c47c30cb0dacd41,5ff3a40fbaa7c4a16543c882,2021-01-05_00h26.25.983,Colour_Similarity_Experiment_v1,2020.1.2,Win32,60,5ff3a352adaa099f7659f8cc,,,,,,,,,,,,,,,,,,,,FF,,,,,,,,1,2.0448,,,,,,,,,,,,,,,,,,,,,,,,,,,,6,-81,44,1,0,0,response7disk,5,98,1,10,1,0,0,rectangle,1,10,1,0,0,6,0,0,0.00262,1,10,1,0,0,0,97,97,126,1,,,,,,,,,,,,,,,,,,,,,
,,,,,,,,,,,,,,,,,,,,,,,,,,,,,,,,,,,,,,,,,,,5fbec1472c47c30cb0dacd41,5ff3a40fbaa7c4a16543c882,2021-01-05_00h26.25.983,Colour_Similarity_Experiment_v1,2020.1.2,Win32,60,5ff3a352adaa099f7659f8cc,,,,,,,,,,,,,,,,,,,,PF,,,,,,,,1,2.0653,,,,,,,,,,,,,,,,,,,,,,,,,,,,6,-79,54,1,0,0,response7disk,7,99,-24,4,1,0,0,rectangle,-24,4,1,0,0,6,4,0,0.001225,-24,4,1,0,0,0,98,98,50,1,,,,,,,,,,,,,,,,,,,,,
,,,,,,,,,,,,,,,,,,,,,,,,,,,,,,,,,,,,,,,,,,,5fbec1472c47c30cb0dacd41,5ff3a40fbaa7c4a16543c882,2021-01-05_00h26.25.983,Colour_Similarity_Experiment_v1,2020.1.2,Win32,60,5ff3a352adaa099f7659f8cc,,,,,,,,,,,,,,,,,,,,PF,,,,,,,,1,2.46968,,,,,,,,,,,,,,,,,,,,,,,,,,,,4,-124,37,1,0,0,response7disk,5,100,21,2,1,0,0,rectangle,21,2,1,0,0,6,6,0,0.00159,21,2,1,0,0,0,99,99,49,1,,,,,,,,,,,,,,,,,,,,,
,,,,,,,,,,,,,,,,,,,,,,,,,,,,,,,,,,,,,,,,,,,5fbec1472c47c30cb0dacd41,5ff3a40fbaa7c4a16543c882,2021-01-05_00h26.25.983,Colour_Similarity_Experiment_v1,2020.1.2,Win32,60,5ff3a352adaa099f7659f8cc,,,,,,,,,,,,,,,,,,,,PF,,,,,,,,7,2.22405,,,,,,,,,,,,,,,,,,,,,,,,,,,,4,91,131,1,0,0,response1disk,8,101,16,6,1,0,0,rectangle,16,6,1,0,0,6,4,0,0.001485,16,6,1,0,0,0,100,100,124,1,,,,,,,,,,,,,,,,,,,,,
,,,,,,,,,,,,,,,,,,,,,,,,,,,,,,,,,,,,,,,,,,,5fbec1472c47c30cb0dacd41,5ff3a40fbaa7c4a16543c882,2021-01-05_00h26.25.983,Colour_Similarity_Experiment_v1,2020.1.2,Win32,60,5ff3a352adaa099f7659f8cc,,,,,,,,,,,,,,,,,,,,PF,,,,,,,,5,2.609645,,,,,,,,,,,,,,,,,,,,,,,,,,,,9,88,-45,1,0,0,response3disk,2,102,-3,-6,1,0,0,rectangle,-3,-6,1,0,0,6,2,0,0.00143,-3,-6,1,0,0,0,101,101,157,1,,,,,,,,,,,,,,,,,,,,,
,,,,,,,,,,,,,,,,,,,,,,,,,,,,,,,,,,,,,,,,,,,5fbec1472c47c30cb0dacd41,5ff3a40fbaa7c4a16543c882,2021-01-05_00h26.25.983,Colour_Similarity_Experiment_v1,2020.1.2,Win32,60,5ff3a352adaa099f7659f8cc,,,,,,,,,,,,,,,,,,,,FF,,,,,,,,7,2.253255,,,,,,,,,,,,,,,,,,,,,,,,,,,,2,54,91,1,0,0,response1disk,4,103,-1,-18,1,0,0,rectangle,-1,-18,1,0,0,6,7,0,0.001695,-1,-18,1,0,0,0,102,102,145,1,,,,,,,,,,,,,,,,,,,,,
,,,,,,,,,,,,,,,,,,,,,,,,,,,,,,,,,,,,,,,,,,,5fbec1472c47c30cb0dacd41,5ff3a40fbaa7c4a16543c882,2021-01-05_00h26.25.983,Colour_Similarity_Experiment_v1,2020.1.2,Win32,60,5ff3a352adaa099f7659f8cc,,,,,,,,,,,,,,,,,,,,FF,,,,,,,,4,2.373505,,,,,,,,,,,,,,,,,,,,,,,,,,,,7,46,-115,1,0,0,response3disk,3,104,0,3,1,0,0,rectangle,0,3,1,0,0,6,2,0,0.00161,0,3,1,0,0,0,103,103,73,1,,,,,,,,,,,,,,,,,,,,,
,,,,,,,,,,,,,,,,,,,,,,,,,,,,,,,,,,,,,,,,,,,5fbec1472c47c30cb0dacd41,5ff3a40fbaa7c4a16543c882,2021-01-05_00h26.25.983,Colour_Similarity_Experiment_v1,2020.1.2,Win32,60,5ff3a352adaa099f7659f8cc,,,,,,,,,,,,,,,,,,,,PF,,,,,,,,7,2.071115,,,,,,,,,,,,,,,,,,,,,,,,,,,,4,42,101,1,0,0,response1disk,9,105,4,-3,1,0,0,rectangle,4,-3,1,0,0,6,6,0,0.04666,4,-3,1,0,0,0,104,104,75,1,,,,,,,,,,,,,,,,,,,,,
,,,,,,,,,,,,,,,,,,,,,,,,,,,,,,,,,,,,,,,,,,,5fbec1472c47c30cb0dacd41,5ff3a40fbaa7c4a16543c882,2021-01-05_00h26.25.983,Colour_Similarity_Experiment_v1,2020.1.2,Win32,60,5ff3a352adaa099f7659f8cc,,,,,,,,,,,,,,,,,,,,PF,,,,,,,,0,1.892745,,,,,,,,,,,,,,,,,,,,,,,,,,,,3,-46,101,1,0,0,response7disk,3,106,2,8,1,0,0,rectangle,2,8,1,0,0,6,6,0,0.001465,2,8,1,0,0,0,105,105,4,1,,,,,,,,,,,,,,,,,,,,,
,,,,,,,,,,,,,,,,,,,,,,,,,,,,,,,,,,,,,,,,,,,5fbec1472c47c30cb0dacd41,5ff3a40fbaa7c4a16543c882,2021-01-05_00h26.25.983,Colour_Similarity_Experiment_v1,2020.1.2,Win32,60,5ff3a352adaa099f7659f8cc,,,,,,,,,,,,,,,,,,,,PF,,,,,,,,7,1.676985,,,,,,,,,,,,,,,,,,,,,,,,,,,,7,31,67,1,0,0,response1disk,9,107,6,-3,1,0,0,rectangle,6,-3,1,0,0,6,6,0,0.00128,6,-3,1,0,0,0,106,106,10,1,,,,,,,,,,,,,,,,,,,,,
,,,,,,,,,,,,,,,,,,,,,,,,,,,,,,,,,,,,,,,,,,,5fbec1472c47c30cb0dacd41,5ff3a40fbaa7c4a16543c882,2021-01-05_00h26.25.983,Colour_Similarity_Experiment_v1,2020.1.2,Win32,60,5ff3a352adaa099f7659f8cc,,,,,,,,,,,,,,,,,,,,PF,,,,,,,,0,1.74457,,,,,,,,,,,,,,,,,,,,,,,,,,,,9,-40,96,1,0,0,response7disk,9,108,-17,-6,1,0,0,rectangle,-17,-6,1,0,0,6,7,0,0.00165,-17,-6,1,0,0,0,107,107,106,1,,,,,,,,,,,,,,,,,,,,,
,,,,,,,,,,,,,,,,,,,,,,,,,,,,,,,,,,,,,,,,,,,5fbec1472c47c30cb0dacd41,5ff3a40fbaa7c4a16543c882,2021-01-05_00h26.25.983,Colour_Similarity_Experiment_v1,2020.1.2,Win32,60,5ff3a352adaa099f7659f8cc,,,,,,,,,,,,,,,,,,,,FF,,,,,,,,2,3.343915,,,,,,,,,,,,,,,,,,,,,,,,,,,,5,-96,-55,1,0,0,response5disk,3,109,-42,10,1,0,0,rectangle,-42,10,1,0,0,6,5,0,0.00121,-42,10,1,0,0,0,108,108,25,1,,,,,,,,,,,,,,,,,,,,,
,,,,,,,,,,,,,,,,,,,,,,,,,,,,,,,,,,,,,,,,,,,5fbec1472c47c30cb0dacd41,5ff3a40fbaa7c4a16543c882,2021-01-05_00h26.25.983,Colour_Similarity_Experiment_v1,2020.1.2,Win32,60,5ff3a352adaa099f7659f8cc,,,,,,,,,,,,,,,,,,,,FF,,,,,,,,7,1.644315,,,,,,,,,,,,,,,,,,,,,,,,,,,,4,83,121,1,0,0,response1disk,9,110,7,-3,1,0,0,rectangle,7,-3,1,0,0,6,7,0,0.001485,7,-3,1,0,0,0,109,109,90,1,,,,,,,,,,,,,,,,,,,,,
,,,,,,,,,,,,,,,,,,,,,,,,,,,,,,,,,,,,,,,,,,,5fbec1472c47c30cb0dacd41,5ff3a40fbaa7c4a16543c882,2021-01-05_00h26.25.983,Colour_Similarity_Experiment_v1,2020.1.2,Win32,60,5ff3a352adaa099f7659f8cc,,,,,,,,,,,,,,,,,,,,PF,,,,,,,,6,2.034715,,,,,,,,,,,,,,,,,,,,,,,,,,,,6,94,41,1,0,0,response1disk,3,111,-1,3,1,0,0,rectangle,-1,3,1,0,0,6,6,0,0.001435,-1,3,1,0,0,0,110,110,26,1,,,,,,,,,,,,,,,,,,,,,
,,,,,,,,,,,,,,,,,,,,,,,,,,,,,,,,,,,,,,,,,,,5fbec1472c47c30cb0dacd41,5ff3a40fbaa7c4a16543c882,2021-01-05_00h26.25.983,Colour_Similarity_Experiment_v1,2020.1.2,Win32,60,5ff3a352adaa099f7659f8cc,,,,,,,,,,,,,,,,,,,,PF,,,,,,,,7,1.490605,,,,,,,,,,,,,,,,,,,,,,,,,,,,7,62,124,1,0,0,response1disk,8,112,23,-12,1,0,0,rectangle,23,-12,1,0,0,6,7,0,0.001755,23,-12,1,0,0,0,111,111,140,1,,,,,,,,,,,,,,,,,,,,,
,,,,,,,,,,,,,,,,,,,,,,,,,,,,,,,,,,,,,,,,,,,5fbec1472c47c30cb0dacd41,5ff3a40fbaa7c4a16543c882,2021-01-05_00h26.25.983,Colour_Similarity_Experiment_v1,2020.1.2,Win32,60,5ff3a352adaa099f7659f8cc,,,,,,,,,,,,,,,,,,,,FF,,,,,,,,5,2.510355,,,,,,,,,,,,,,,,,,,,,,,,,,,,2,73,-40,1,0,0,response3disk,9,113,4,-3,1,0,0,rectangle,4,-3,1,0,0,6,7,0,0.001605,4,-3,1,0,0,0,112,112,72,1,,,,,,,,,,,,,,,,,,,,,
,,,,,,,,,,,,,,,,,,,,,,,,,,,,,,,,,,,,,,,,,,,5fbec1472c47c30cb0dacd41,5ff3a40fbaa7c4a16543c882,2021-01-05_00h26.25.983,Colour_Similarity_Experiment_v1,2020.1.2,Win32,60,5ff3a352adaa099f7659f8cc,,,,,,,,,,,,,,,,,,,,PF,,,,,,,,7,2.1645,,,,,,,,,,,,,,,,,,,,,,,,,,,,8,67,132,1,0,0,response1disk,3,114,11,-4,1,0,0,rectangle,11,-4,1,0,0,6,7,0,0.002605,11,-4,1,0,0,0,113,113,71,1,,,,,,,,,,,,,,,,,,,,,
,,,,,,,,,,,,,,,,,,,,,,,,,,,,,,,,,,,,,,,,,,,5fbec1472c47c30cb0dacd41,5ff3a40fbaa7c4a16543c882,2021-01-05_00h26.25.983,Colour_Similarity_Experiment_v1,2020.1.2,Win32,60,5ff3a352adaa099f7659f8cc,,,,,,,,,,,,,,,,,,,,FF,,,,,,,,4,10.077525,,,,,,,,,,,,,,,,,,,,,,,,,,,,4,34,-92,1,0,0,response3disk,6,115,-8,17,1,0,0,rectangle,-8,17,1,0,0,6,5,0,0.002325,-8,17,1,0,0,0,114,114,122,1,,,,,,,,,,,,,,,,,,,,,
,,,,,,,,,,,,,,,,,,,,,,,,,,,,,,,,,,,,,,,,,,,5fbec1472c47c30cb0dacd41,5ff3a40fbaa7c4a16543c882,2021-01-05_00h26.25.983,Colour_Similarity_Experiment_v1,2020.1.2,Win32,60,5ff3a352adaa099f7659f8cc,,,,,,,,,,,,,,,,,,,,FF,,,,,,,,6,5.33038,,,,,,,,,,,,,,,,,,,,,,,,,,,,5,167,63,1,0,0,response1disk,9,116,-19,-12,1,0,0,rectangle,-19,-12,1,0,0,6,4,0,0.001125,-19,-12,1,0,0,0,115,115,61,1,,,,,,,,,,,,,,,,,,,,,
,,,,,,,,,,,,,,,,,,,,,,,,,,,,,,,,,,,,,,,,,,,5fbec1472c47c30cb0dacd41,5ff3a40fbaa7c4a16543c882,2021-01-05_00h26.25.983,Colour_Similarity_Experiment_v1,2020.1.2,Win32,60,5ff3a352adaa099f7659f8cc,,,,,,,,,,,,,,,,,,,,PF,,,,,,,,6,2.712405,,,,,,,,,,,,,,,,,,,,,,,,,,,,6,167,139,1,0,0,response1disk,8,117,28,-5,1,0,0,rectangle,28,-5,1,0,0,6,6,0,0.00151,28,-5,1,0,0,0,116,116,64,1,,,,,,,,,,,,,,,,,,,,,
,,,,,,,,,,,,,,,,,,,,,,,,,,,,,,,,,,,,,,,,,,,5fbec1472c47c30cb0dacd41,5ff3a40fbaa7c4a16543c882,2021-01-05_00h26.25.983,Colour_Similarity_Experiment_v1,2020.1.2,Win32,60,5ff3a352adaa099f7659f8cc,,,,,,,,,,,,,,,,,,,,FF,,,,,,,,7,2.358185,,,,,,,,,,,,,,,,,,,,,,,,,,,,9,73,120,1,0,0,response1disk,5,118,-9,10,1,0,0,rectangle,-9,10,1,0,0,6,6,0,0.001105,-9,10,1,0,0,0,117,117,128,1,,,,,,,,,,,,,,,,,,,,,
,,,,,,,,,,,,,,,,,,,,,,,,,,,,,,,,,,,,,,,,,,,5fbec1472c47c30cb0dacd41,5ff3a40fbaa7c4a16543c882,2021-01-05_00h26.25.983,Colour_Similarity_Experiment_v1,2020.1.2,Win32,60,5ff3a352adaa099f7659f8cc,,,,,,,,,,,,,,,,,,,,FF,,,,,,,,4,1.959215,,,,,,,,,,,,,,,,,,,,,,,,,,,,7,68,-93,1,0,0,response3disk,4,119,9,5,1,0,0,rectangle,9,5,1,0,0,6,1,0,0.001535,9,5,1,0,0,0,118,118,158,1,,,,,,,,,,,,,,,,,,,,,
,,,,,,,,,,,,,,,,,,,,,,,,,,,,,,,,,,,,,,,,,,,5fbec1472c47c30cb0dacd41,5ff3a40fbaa7c4a16543c882,2021-01-05_00h26.25.983,Colour_Similarity_Experiment_v1,2020.1.2,Win32,60,5ff3a352adaa099f7659f8cc,,,,,,,,,,,,,,,,,,,,FF,,,,,,,,6,2.319035,,,,,,,,,,,,,,,,,,,,,,,,,,,,6,151,65,1,0,0,response1disk,8,120,14,1,1,0,0,rectangle,14,1,1,0,0,6,7,0,0.00135,14,1,1,0,0,0,119,119,133,1,,,,,,,,,,,,,,,,,,,,,
,,,,,,,,,,,,,,,,,,,,,,,,,,,,,,,,,,,,,,,,,,,5fbec1472c47c30cb0dacd41,5ff3a40fbaa7c4a16543c882,2021-01-05_00h26.25.983,Colour_Similarity_Experiment_v1,2020.1.2,Win32,60,5ff3a352adaa099f7659f8cc,,,,,,,,,,,,,,,,,,,,FF,,,,,,,,1,2.15267,,,,,,,,,,,,,,,,,,,,,,,,,,,,9,-103,53,1,0,0,response7disk,8,121,28,-16,1,0,0,rectangle,28,-16,1,0,0,6,3,0,0.00114,28,-16,1,0,0,0,120,120,6,1,,,,,,,,,,,,,,,,,,,,,
,,,,,,,,,,,,,,,,,,,,,,,,,,,,,,,,,,,,,,,,,,,5fbec1472c47c30cb0dacd41,5ff3a40fbaa7c4a16543c882,2021-01-05_00h26.25.983,Colour_Similarity_Experiment_v1,2020.1.2,Win32,60,5ff3a352adaa099f7659f8cc,,,,,,,,,,,,,,,,,,,,FF,,,,,,,,7,2.73583,,,,,,,,,,,,,,,,,,,,,,,,,,,,9,63,88,1,0,0,response1disk,4,122,2,8,1,0,0,rectangle,2,8,1,0,0,6,4,0,0.001465,2,8,1,0,0,0,121,121,60,1,,,,,,,,,,,,,,,,,,,,,
,,,,,,,,,,,,,,,,,,,,,,,,,,,,,,,,,,,,,,,,,,,5fbec1472c47c30cb0dacd41,5ff3a40fbaa7c4a16543c882,2021-01-05_00h26.25.983,Colour_Similarity_Experiment_v1,2020.1.2,Win32,60,5ff3a352adaa099f7659f8cc,,,,,,,,,,,,,,,,,,,,FF,,,,,,,,6,2.789665,,,,,,,,,,,,,,,,,,,,,,,,,,,,2,132,56,1,0,0,response1disk,7,123,20,-2,1,0,0,rectangle,20,-2,1,0,0,6,3,0,0.00163,20,-2,1,0,0,0,122,122,63,1,,,,,,,,,,,,,,,,,,,,,
,,,,,,,,,,,,,,,,,,,,,,,,,,,,,,,,,,,,,,,,,,,5fbec1472c47c30cb0dacd41,5ff3a40fbaa7c4a16543c882,2021-01-05_00h26.25.983,Colour_Similarity_Experiment_v1,2020.1.2,Win32,60,5ff3a352adaa099f7659f8cc,,,,,,,,,,,,,,,,,,,,FF,,,,,,,,5,2.276605,,,,,,,,,,,,,,,,,,,,,,,,,,,,3,105,-56,1,0,0,response3disk,2,124,27,-4,1,0,0,rectangle,27,-4,1,0,0,6,3,0,0.001585,27,-4,1,0,0,0,123,123,93,1,,,,,,,,,,,,,,,,,,,,,
,,,,,,,,,,,,,,,,,,,,,,,,,,,,,,,,,,,,,,,,,,,5fbec1472c47c30cb0dacd41,5ff3a40fbaa7c4a16543c882,2021-01-05_00h26.25.983,Colour_Similarity_Experiment_v1,2020.1.2,Win32,60,5ff3a352adaa099f7659f8cc,,,,,,,,,,,,,,,,,,,,FF,,,,,,,,3,2.70435,,,,,,,,,,,,,,,,,,,,,,,,,,,,1,-40,-124,1,0,0,response5disk,9,125,2,18,1,0,0,rectangle,2,18,1,0,0,6,0,0,0.001645,2,18,1,0,0,0,124,124,123,1,,,,,,,,,,,,,,,,,,,,,
,,,,,,,,,,,,,,,,,,,,,,,,,,,,,,,,,,,,,,,,,,,5fbec1472c47c30cb0dacd41,5ff3a40fbaa7c4a16543c882,2021-01-05_00h26.25.983,Colour_Similarity_Experiment_v1,2020.1.2,Win32,60,5ff3a352adaa099f7659f8cc,,,,,,,,,,,,,,,,,,,,PF,,,,,,,,2,1.76837,,,,,,,,,,,,,,,,,,,,,,,,,,,,7,-73,-36,1,0,0,response5disk,5,126,-26,-3,1,0,0,rectangle,-26,-3,1,0,0,6,1,0,0.001285,-26,-3,1,0,0,0,125,125,92,1,,,,,,,,,,,,,,,,,,,,,
,,,,,,,,,,,,,,,,,,,,,,,,,,,,,,,,,,,,,,,,,,,5fbec1472c47c30cb0dacd41,5ff3a40fbaa7c4a16543c882,2021-01-05_00h26.25.983,Colour_Similarity_Experiment_v1,2020.1.2,Win32,60,5ff3a352adaa099f7659f8cc,,,,,,,,,,,,,,,,,,,,FF,,,,,,,,6,2.76129,,,,,,,,,,,,,,,,,,,,,,,,,,,,2,98,74,1,0,0,response1disk,6,127,6,14,1,0,0,rectangle,6,14,1,0,0,6,6,0,0.001645,6,14,1,0,0,0,126,126,40,1,,,,,,,,,,,,,,,,,,,,,
,,,,,,,,,,,,,,,,,,,,,,,,,,,,,,,,,,,,,,,,,,,5fbec1472c47c30cb0dacd41,5ff3a40fbaa7c4a16543c882,2021-01-05_00h26.25.983,Colour_Similarity_Experiment_v1,2020.1.2,Win32,60,5ff3a352adaa099f7659f8cc,,,,,,,,,,,,,,,,,,,,PF,,,,,,,,3,1.94358,,,,,,,,,,,,,,,,,,,,,,,,,,,,5,-56,-113,1,0,0,response5disk,6,128,-3,17,1,0,0,rectangle,-3,17,1,0,0,6,0,0,0.001195,-3,17,1,0,0,0,127,127,103,1,,,,,,,,,,,,,,,,,,,,,
,,,,,,,,,,,,,,,,,,,,,,,,,,,,,,,,,,,,,,,,,,,5fbec1472c47c30cb0dacd41,5ff3a40fbaa7c4a16543c882,2021-01-05_00h26.25.983,Colour_Similarity_Experiment_v1,2020.1.2,Win32,60,5ff3a352adaa099f7659f8cc,,,,,,,,,,,,,,,,,,,,PF,,,,,,,,6,3.655165,,,,,,,,,,,,,,,,,,,,,,,,,,,,5,112,48,1,0,0,response1disk,2,129,-7,-2,1,0,0,rectangle,-7,-2,1,0,0,6,7,0,0.00159,-7,-2,1,0,0,0,128,128,129,1,,,,,,,,,,,,,,,,,,,,,
,,,,,,,,,,,,,,,,,,,,,,,,,,,,,,,,,,,,,,,,,,,5fbec1472c47c30cb0dacd41,5ff3a40fbaa7c4a16543c882,2021-01-05_00h26.25.983,Colour_Similarity_Experiment_v1,2020.1.2,Win32,60,5ff3a352adaa099f7659f8cc,,,,,,,,,,,,,,,,,,,,FF,,,,,,,,0,1.474895,,,,,,,,,,,,,,,,,,,,,,,,,,,,8,-38,110,1,0,0,response7disk,8,130,-8,-17,1,0,0,rectangle,-8,-17,1,0,0,6,7,0,0.0019,-8,-17,1,0,0,0,129,129,48,1,,,,,,,,,,,,,,,,,,,,,
,,,,,,,,,,,,,,,,,,,,,,,,,,,,,,,,,,,,,,,,,,,5fbec1472c47c30cb0dacd41,5ff3a40fbaa7c4a16543c882,2021-01-05_00h26.25.983,Colour_Similarity_Experiment_v1,2020.1.2,Win32,60,5ff3a352adaa099f7659f8cc,,,,,,,,,,,,,,,,,,,,PF,,,,,,,,1,1.65976,,,,,,,,,,,,,,,,,,,,,,,,,,,,7,-113,43,1,0,0,response7disk,6,131,20,-11,1,0,0,rectangle,20,-11,1,0,0,6,0,0,0.002415,20,-11,1,0,0,0,130,130,29,1,,,,,,,,,,,,,,,,,,,,,
,,,,,,,,,,,,,,,,,,,,,,,,,,,,,,,,,,,,,,,,,,,5fbec1472c47c30cb0dacd41,5ff3a40fbaa7c4a16543c882,2021-01-05_00h26.25.983,Colour_Similarity_Experiment_v1,2020.1.2,Win32,60,5ff3a352adaa099f7659f8cc,,,,,,,,,,,,,,,,,,,,PF,,,,,,,,3,2.15777,,,,,,,,,,,,,,,,,,,,,,,,,,,,7,-49,-86,1,0,0,response5disk,3,132,-25,-17,1,0,0,rectangle,-25,-17,1,0,0,6,7,0,0.00111,-25,-17,1,0,0,0,131,131,81,1,,,,,,,,,,,,,,,,,,,,,
,,,,,,,,,,,,,,,,,,,,,,,,,,,,,,,,,,,,,,,,,,,5fbec1472c47c30cb0dacd41,5ff3a40fbaa7c4a16543c882,2021-01-05_00h26.25.983,Colour_Similarity_Experiment_v1,2020.1.2,Win32,60,5ff3a352adaa099f7659f8cc,,,,,,,,,,,,,,,,,,,,FF,,,,,,,,4,3.386925,,,,,,,,,,,,,,,,,,,,,,,,,,,,8,65,-111,1,0,0,response3disk,2,133,-31,-3,1,0,0,rectangle,-31,-3,1,0,0,6,6,0,0.00164,-31,-3,1,0,0,0,132,132,22,1,,,,,,,,,,,,,,,,,,,,,
,,,,,,,,,,,,,,,,,,,,,,,,,,,,,,,,,,,,,,,,,,,5fbec1472c47c30cb0dacd41,5ff3a40fbaa7c4a16543c882,2021-01-05_00h26.25.983,Colour_Similarity_Experiment_v1,2020.1.2,Win32,60,5ff3a352adaa099f7659f8cc,,,,,,,,,,,,,,,,,,,,PF,,,,,,,,7,1.974145,,,,,,,,,,,,,,,,,,,,,,,,,,,,2,60,135,1,0,0,response1disk,5,134,-13,18,1,0,0,rectangle,-13,18,1,0,0,6,0,0,0.001905,-13,18,1,0,0,0,133,133,147,1,,,,,,,,,,,,,,,,,,,,,
,,,,,,,,,,,,,,,,,,,,,,,,,,,,,,,,,,,,,,,,,,,5fbec1472c47c30cb0dacd41,5ff3a40fbaa7c4a16543c882,2021-01-05_00h26.25.983,Colour_Similarity_Experiment_v1,2020.1.2,Win32,60,5ff3a352adaa099f7659f8cc,,,,,,,,,,,,,,,,,,,,FF,,,,,,,,2,2.210185,,,,,,,,,,,,,,,,,,,,,,,,,,,,5,-111,-84,1,0,0,response5disk,7,135,-7,-13,1,0,0,rectangle,-7,-13,1,0,0,6,4,0,0.001315,-7,-13,1,0,0,0,134,134,7,1,,,,,,,,,,,,,,,,,,,,,
,,,,,,,,,,,,,,,,,,,,,,,,,,,,,,,,,,,,,,,,,,,5fbec1472c47c30cb0dacd41,5ff3a40fbaa7c4a16543c882,2021-01-05_00h26.25.983,Colour_Similarity_Experiment_v1,2020.1.2,Win32,60,5ff3a352adaa099f7659f8cc,,,,,,,,,,,,,,,,,,,,FF,,,,,,,,7,2.391725,,,,,,,,,,,,,,,,,,,,,,,,,,,,3,77,138,1,0,0,response1disk,8,136,-7,10,1,0,0,rectangle,-7,10,1,0,0,6,3,0,0.00126,-7,10,1,0,0,0,135,135,44,1,,,,,,,,,,,,,,,,,,,,,
,,,,,,,,,,,,,,,,,,,,,,,,,,,,,,,,,,,,,,,,,,,5fbec1472c47c30cb0dacd41,5ff3a40fbaa7c4a16543c882,2021-01-05_00h26.25.983,Colour_Similarity_Experiment_v1,2020.1.2,Win32,60,5ff3a352adaa099f7659f8cc,,,,,,,,,,,,,,,,,,,,FF,,,,,,,,1,1.72069,,,,,,,,,,,,,,,,,,,,,,,,,,,,4,-165,45,1,0,0,response7disk,3,137,37,-7,1,0,0,rectangle,37,-7,1,0,0,6,3,0,0.001,37,-7,1,0,0,0,136,136,77,1,,,,,,,,,,,,,,,,,,,,,
,,,,,,,,,,,,,,,,,,,,,,,,,,,,,,,,,,,,,,,,,,,5fbec1472c47c30cb0dacd41,5ff3a40fbaa7c4a16543c882,2021-01-05_00h26.25.983,Colour_Similarity_Experiment_v1,2020.1.2,Win32,60,5ff3a352adaa099f7659f8cc,,,,,,,,,,,,,,,,,,,,PF,,,,,,,,4,2.34257,,,,,,,,,,,,,,,,,,,,,,,,,,,,6,56,-98,1,0,0,response3disk,4,138,-12,-13,1,0,0,rectangle,-12,-13,1,0,0,6,2,0,0.002475,-12,-13,1,0,0,0,137,137,33,1,,,,,,,,,,,,,,,,,,,,,
,,,,,,,,,,,,,,,,,,,,,,,,,,,,,,,,,,,,,,,,,,,5fbec1472c47c30cb0dacd41,5ff3a40fbaa7c4a16543c882,2021-01-05_00h26.25.983,Colour_Similarity_Experiment_v1,2020.1.2,Win32,60,5ff3a352adaa099f7659f8cc,,,,,,,,,,,,,,,,,,,,PF,,,,,,,,7,3.15449,,,,,,,,,,,,,,,,,,,,,,,,,,,,9,32,95,1,0,0,response1disk,7,139,1,1,1,0,0,rectangle,1,1,1,0,0,6,0,0,0.0017,1,1,1,0,0,0,138,138,121,1,,,,,,,,,,,,,,,,,,,,,
,,,,,,,,,,,,,,,,,,,,,,,,,,,,,,,,,,,,,,,,,,,5fbec1472c47c30cb0dacd41,5ff3a40fbaa7c4a16543c882,2021-01-05_00h26.25.983,Colour_Similarity_Experiment_v1,2020.1.2,Win32,60,5ff3a352adaa099f7659f8cc,,,,,,,,,,,,,,,,,,,,PF,,,,,,,,0,1.74891,,,,,,,,,,,,,,,,,,,,,,,,,,,,6,-39,121,1,0,0,response7disk,6,140,-25,-6,1,0,0,rectangle,-25,-6,1,0,0,6,5,0,0.00166,-25,-6,1,0,0,0,139,139,0,1,,,,,,,,,,,,,,,,,,,,,
,,,,,,,,,,,,,,,,,,,,,,,,,,,,,,,,,,,,,,,,,,,5fbec1472c47c30cb0dacd41,5ff3a40fbaa7c4a16543c882,2021-01-05_00h26.25.983,Colour_Similarity_Experiment_v1,2020.1.2,Win32,60,5ff3a352adaa099f7659f8cc,,,,,,,,,,,,,,,,,,,,PF,,,,,,,,2,2.25886,,,,,,,,,,,,,,,,,,,,,,,,,,,,9,-125,-33,1,0,0,response5disk,8,141,-14,3,1,0,0,rectangle,-14,3,1,0,0,6,2,0,0.00153,-14,3,1,0,0,0,140,140,67,1,,,,,,,,,,,,,,,,,,,,,
,,,,,,,,,,,,,,,,,,,,,,,,,,,,,,,,,,,,,,,,,,,5fbec1472c47c30cb0dacd41,5ff3a40fbaa7c4a16543c882,2021-01-05_00h26.25.983,Colour_Similarity_Experiment_v1,2020.1.2,Win32,60,5ff3a352adaa099f7659f8cc,,,,,,,,,,,,,,,,,,,,PF,,,,,,,,5,2.77523,,,,,,,,,,,,,,,,,,,,,,,,,,,,4,118,-33,1,0,0,response3disk,2,142,16,5,1,0,0,rectangle,16,5,1,0,0,6,5,0,0.01141,16,5,1,0,0,0,141,141,108,1,,,,,,,,,,,,,,,,,,,,,
,,,,,,,,,,,,,,,,,,,,,,,,,,,,,,,,,,,,,,,,,,,5fbec1472c47c30cb0dacd41,5ff3a40fbaa7c4a16543c882,2021-01-05_00h26.25.983,Colour_Similarity_Experiment_v1,2020.1.2,Win32,60,5ff3a352adaa099f7659f8cc,,,,,,,,,,,,,,,,,,,,FF,,,,,,,,3,2.3244,,,,,,,,,,,,,,,,,,,,,,,,,,,,3,-35,-125,1,0,0,response5disk,5,143,-25,6,1,0,0,rectangle,-25,6,1,0,0,6,5,0,0.001675,-25,6,1,0,0,0,142,142,101,1,,,,,,,,,,,,,,,,,,,,,
,,,,,,,,,,,,,,,,,,,,,,,,,,,,,,,,,,,,,,,,,,,5fbec1472c47c30cb0dacd41,5ff3a40fbaa7c4a16543c882,2021-01-05_00h26.25.983,Colour_Similarity_Experiment_v1,2020.1.2,Win32,60,5ff3a352adaa099f7659f8cc,,,,,,,,,,,,,,,,,,,,FF,,,,,,,,6,3.16755,,,,,,,,,,,,,,,,,,,,,,,,,,,,3,96,61,1,0,0,response1disk,9,144,13,4,1,0,0,rectangle,13,4,1,0,0,6,2,0,0.001125,13,4,1,0,0,0,143,143,143,1,,,,,,,,,,,,,,,,,,,,,
,,,,,,,,,,,,,,,,,,,,,,,,,,,,,,,,,,,,,,,,,,,5fbec1472c47c30cb0dacd41,5ff3a40fbaa7c4a16543c882,2021-01-05_00h26.25.983,Colour_Similarity_Experiment_v1,2020.1.2,Win32,60,5ff3a352adaa099f7659f8cc,,,,,,,,,,,,,,,,,,,,FF,,,,,,,,7,1.71493,,,,,,,,,,,,,,,,,,,,,,,,,,,,1,32,128,1,0,0,response1disk,5,145,-2,5,1,0,0,rectangle,-2,5,1,0,0,6,6,0,0.001065,-2,5,1,0,0,0,144,144,82,1,,,,,,,,,,,,,,,,,,,,,
,,,,,,,,,,,,,,,,,,,,,,,,,,,,,,,,,,,,,,,,,,,5fbec1472c47c30cb0dacd41,5ff3a40fbaa7c4a16543c882,2021-01-05_00h26.25.983,Colour_Similarity_Experiment_v1,2020.1.2,Win32,60,5ff3a352adaa099f7659f8cc,,,,,,,,,,,,,,,,,,,,PF,,,,,,,,5,2.775735,,,,,,,,,,,,,,,,,,,,,,,,,,,,1,126,-35,1,0,0,response3disk,8,146,24,-8,1,0,0,rectangle,24,-8,1,0,0,6,6,0,0.001155,24,-8,1,0,0,0,145,145,65,1,,,,,,,,,,,,,,,,,,,,,
,,,,,,,,,,,,,,,,,,,,,,,,,,,,,,,,,,,,,,,,,,,5fbec1472c47c30cb0dacd41,5ff3a40fbaa7c4a16543c882,2021-01-05_00h26.25.983,Colour_Similarity_Experiment_v1,2020.1.2,Win32,60,5ff3a352adaa099f7659f8cc,,,,,,,,,,,,,,,,,,,,PF,,,,,,,,7,2.90399,,,,,,,,,,,,,,,,,,,,,,,,,,,,2,48,152,1,0,0,response1disk,6,147,19,13,1,0,0,rectangle,19,13,1,0,0,6,5,0,0.001165,19,13,1,0,0,0,146,146,113,1,,,,,,,,,,,,,,,,,,,,,
,,,,,,,,,,,,,,,,,,,,,,,,,,,,,,,,,,,,,,,,,,,5fbec1472c47c30cb0dacd41,5ff3a40fbaa7c4a16543c882,2021-01-05_00h26.25.983,Colour_Similarity_Experiment_v1,2020.1.2,Win32,60,5ff3a352adaa099f7659f8cc,,,,,,,,,,,,,,,,,,,,FF,,,,,,,,4,2.490125,,,,,,,,,,,,,,,,,,,,,,,,,,,,3,104,-159,1,0,0,response3disk,6,148,-20,-3,1,0,0,rectangle,-20,-3,1,0,0,6,0,0,0.001215,-20,-3,1,0,0,0,147,147,95,1,,,,,,,,,,,,,,,,,,,,,
,,,,,,,,,,,,,,,,,,,,,,,,,,,,,,,,,,,,,,,,,,,5fbec1472c47c30cb0dacd41,5ff3a40fbaa7c4a16543c882,2021-01-05_00h26.25.983,Colour_Similarity_Experiment_v1,2020.1.2,Win32,60,5ff3a352adaa099f7659f8cc,,,,,,,,,,,,,,,,,,,,PF,,,,,,,,2,2.633585,,,,,,,,,,,,,,,,,,,,,,,,,,,,1,-106,-67,1,0,0,response5disk,9,149,-1,-4,1,0,0,rectangle,-1,-4,1,0,0,6,0,0,0.001665,-1,-4,1,0,0,0,148,148,15,1,,,,,,,,,,,,,,,,,,,,,
,,,,,,,,,,,,,,,,,,,,,,,,,,,,,,,,,,,,,,,,,,,5fbec1472c47c30cb0dacd41,5ff3a40fbaa7c4a16543c882,2021-01-05_00h26.25.983,Colour_Similarity_Experiment_v1,2020.1.2,Win32,60,5ff3a352adaa099f7659f8cc,,,,,,,,,,,,,,,,,,,,PF,,,,,,,,2,1.59343,,,,,,,,,,,,,,,,,,,,,,,,,,,,9,-90,-47,1,0,0,response5disk,1,150,-27,-1,1,0,0,rectangle,-27,-1,1,0,0,6,6,0,0.00143,-27,-1,1,0,0,0,149,149,74,1,,,,,,,,,,,,,,,,,,,,,
,,,,,,,,,,,,,,,,,,,,,,,,,,,,,,,,,,,,,,,,,,,5fbec1472c47c30cb0dacd41,5ff3a40fbaa7c4a16543c882,2021-01-05_00h26.25.983,Colour_Similarity_Experiment_v1,2020.1.2,Win32,60,5ff3a352adaa099f7659f8cc,,,,,,,,,,,,,,,,,,,,FF,,,,,,,,4,2.41475,,,,,,,,,,,,,,,,,,,,,,,,,,,,1,41,-113,1,0,0,response3disk,2,151,-38,1,1,0,0,rectangle,-38,1,1,0,0,6,6,0,0.00138,-38,1,1,0,0,0,150,150,2,1,,,,,,,,,,,,,,,,,,,,,
,,,,,,,,,,,,,,,,,,,,,,,,,,,,,,,,,,,,,,,,,,,5fbec1472c47c30cb0dacd41,5ff3a40fbaa7c4a16543c882,2021-01-05_00h26.25.983,Colour_Similarity_Experiment_v1,2020.1.2,Win32,60,5ff3a352adaa099f7659f8cc,,,,,,,,,,,,,,,,,,,,PF,,,,,,,,7,2.199025,,,,,,,,,,,,,,,,,,,,,,,,,,,,9,65,129,1,0,0,response1disk,4,152,-14,7,1,0,0,rectangle,-14,7,1,0,0,6,1,0,0.02422,-14,7,1,0,0,0,151,151,114,1,,,,,,,,,,,,,,,,,,,,,
,,,,,,,,,,,,,,,,,,,,,,,,,,,,,,,,,,,,,,,,,,,5fbec1472c47c30cb0dacd41,5ff3a40fbaa7c4a16543c882,2021-01-05_00h26.25.983,Colour_Similarity_Experiment_v1,2020.1.2,Win32,60,5ff3a352adaa099f7659f8cc,,,,,,,,,,,,,,,,,,,,PF,,,,,,,,7,1.21981,,,,,,,,,,,,,,,,,,,,,,,,,,,,8,43,140,1,0,0,response1disk,4,153,-13,-4,1,0,0,rectangle,-13,-4,1,0,0,6,3,0,0.00134,-13,-4,1,0,0,0,152,152,78,1,,,,,,,,,,,,,,,,,,,,,
,,,,,,,,,,,,,,,,,,,,,,,,,,,,,,,,,,,,,,,,,,,5fbec1472c47c30cb0dacd41,5ff3a40fbaa7c4a16543c882,2021-01-05_00h26.25.983,Colour_Similarity_Experiment_v1,2020.1.2,Win32,60,5ff3a352adaa099f7659f8cc,,,,,,,,,,,,,,,,,,,,PF,,,,,,,,6,1.861025,,,,,,,,,,,,,,,,,,,,,,,,,,,,7,145,47,1,0,0,response1disk,2,154,-8,-2,1,0,0,rectangle,-8,-2,1,0,0,6,7,0,0.028615,-8,-2,1,0,0,0,153,153,32,1,,,,,,,,,,,,,,,,,,,,,
,,,,,,,,,,,,,,,,,,,,,,,,,,,,,,,,,,,,,,,,,,,5fbec1472c47c30cb0dacd41,5ff3a40fbaa7c4a16543c882,2021-01-05_00h26.25.983,Colour_Similarity_Experiment_v1,2020.1.2,Win32,60,5ff3a352adaa099f7659f8cc,,,,,,,,,,,,,,,,,,,,FF,,,,,,,,7,2.851665,,,,,,,,,,,,,,,,,,,,,,,,,,,,4,40,130,1,0,0,response1disk,1,155,-7,10,1,0,0,rectangle,-7,10,1,0,0,6,5,0,0.001695,-7,10,1,0,0,0,154,154,102,1,,,,,,,,,,,,,,,,,,,,,
,,,,,,,,,,,,,,,,,,,,,,,,,,,,,,,,,,,,,,,,,,,5fbec1472c47c30cb0dacd41,5ff3a40fbaa7c4a16543c882,2021-01-05_00h26.25.983,Colour_Similarity_Experiment_v1,2020.1.2,Win32,60,5ff3a352adaa099f7659f8cc,,,,,,,,,,,,,,,,,,,,PF,,,,,,,,7,1.804135,,,,,,,,,,,,,,,,,,,,,,,,,,,,6,72,107,1,0,0,response1disk,1,156,7,2,1,0,0,rectangle,7,2,1,0,0,6,2,0,0.001525,7,2,1,0,0,0,155,155,46,1,,,,,,,,,,,,,,,,,,,,,
,,,,,,,,,,,,,,,,,,,,,,,,,,,,,,,,,,,,,,,,,,,5fbec1472c47c30cb0dacd41,5ff3a40fbaa7c4a16543c882,2021-01-05_00h26.25.983,Colour_Similarity_Experiment_v1,2020.1.2,Win32,60,5ff3a352adaa099f7659f8cc,,,,,,,,,,,,,,,,,,,,FF,,,,,,,,7,2.40767,,,,,,,,,,,,,,,,,,,,,,,,,,,,7,60,106,1,0,0,response1disk,9,157,-27,-15,1,0,0,rectangle,-27,-15,1,0,0,6,6,0,0.00109,-27,-15,1,0,0,0,156,156,155,1,,,,,,,,,,,,,,,,,,,,,
,,,,,,,,,,,,,,,,,,,,,,,,,,,,,,,,,,,,,,,,,,,5fbec1472c47c30cb0dacd41,5ff3a40fbaa7c4a16543c882,2021-01-05_00h26.25.983,Colour_Similarity_Experiment_v1,2020.1.2,Win32,60,5ff3a352adaa099f7659f8cc,,,,,,,,,,,,,,,,,,,,PF,,,,,,,,7,1.84428,,,,,,,,,,,,,,,,,,,,,,,,,,,,1,41,96,1,0,0,response1disk,7,158,-6,11,1,0,0,rectangle,-6,11,1,0,0,6,1,0,0.001545,-6,11,1,0,0,0,157,157,150,1,,,,,,,,,,,,,,,,,,,,,
,,,,,,,,,,,,,,,,,,,,,,,,,,,,,,,,,,,,,,,,,,,5fbec1472c47c30cb0dacd41,5ff3a40fbaa7c4a16543c882,2021-01-05_00h26.25.983,Colour_Similarity_Experiment_v1,2020.1.2,Win32,60,5ff3a352adaa099f7659f8cc,,,,,,,,,,,,,,,,,,,,PF,,,,,,,,0,2.036785,,,,,,,,,,,,,,,,,,,,,,,,,,,,4,-38,101,1,0,0,response7disk,4,159,-27,6,1,0,0,rectangle,-27,6,1,0,0,6,2,0,0.00145,-27,6,1,0,0,0,158,158,70,1,,,,,,,,,,,,,,,,,,,,,
,,,,,,,,,,,,,,,,,,,,,,,,,,,,,,,,,,,,,,,,,,,5fbec1472c47c30cb0dacd41,5ff3a40fbaa7c4a16543c882,2021-01-05_00h26.25.983,Colour_Similarity_Experiment_v1,2020.1.2,Win32,60,5ff3a352adaa099f7659f8cc,,,,,,,,,,,,,,,,,,,,PF,,,,,,,,3,2.306625,,,,,,,,,,,,,,,,,,,,,,,,,,,,1,-40,-101,1,0,0,response5disk,2,160,4,-5,1,0,0,rectangle,4,-5,1,0,0,6,5,0,0.00171,4,-5,1,0,0,0,159,159,24,1,,,,,,,,,,,,,,,,,,,,,
,,,,,,,,,,,,,,,,,,,,,,,,,,,,,,,,,,,,,,,,,,,5fbec1472c47c30cb0dacd41,5ff3a40fbaa7c4a16543c882,2021-01-05_00h26.25.983,Colour_Similarity_Experiment_v1,2020.1.2,Win32,60,5ff3a352adaa099f7659f8cc,,,,,,,,,,,,,,,,,,,,PF,,,,,,,,0,1.618145,,,,,,,,,,,,,,,,,,,,,,,,,,,,5,-47,104,1,0,0,response7disk,5,161,-13,13,1,0,0,rectangle,-13,13,1,0,0,6,1,0,0.001195,-13,13,1,0,0,0,160,160,94,1,,,,,,,,,,,,,,,,,,,,,
,,,,,,,,,,,,,,,,,,,,,,,,,,,,,,,,,,,,,,,,,,,5fbec1472c47c30cb0dacd41,5ff3a40fbaa7c4a16543c882,2021-01-05_00h26.25.983,Colour_Similarity_Experiment_v1,2020.1.2,Win32,60,5ff3a352adaa099f7659f8cc,,,,,,,,,,,,,,,,,,,,FF,,,,,,,,3,1.81098,,,,,,,,,,,,,,,,,,,,,,,,,,,,8,-48,-80,1,0,0,response5disk,1,162,-19,9,1,0,0,rectangle,-19,9,1,0,0,6,0,0,0.001695,-19,9,1,0,0,0,161,161,20,1,,,,,,,,,,,,,,,,,,,,,
,,,,,,,,,,,,,,,,,,,,,,,,,,,,,,,,,,,,,,,,,,,5fbec1472c47c30cb0dacd41,5ff3a40fbaa7c4a16543c882,2021-01-05_00h26.25.983,Colour_Similarity_Experiment_v1,2020.1.2,Win32,60,5ff3a352adaa099f7659f8cc,,,,,,,,,,,,,,,,,,,,,,,,,,,,,,,,,,,,,,,,,,,,,,,,,,,,,,,,,,,,,,,,,,,,,,,,,,,,,,,,,,,,,,,,,,,,,0,0,0,0,1,,,,,,,,,,,,,,
,,,,,,,,,,,,,,,,,,,,,,,,,,,,,,,,,,,,,,,,,,,5fbec1472c47c30cb0dacd41,5ff3a40fbaa7c4a16543c882,2021-01-05_00h26.25.983,Colour_Similarity_Experiment_v1,2020.1.2,Win32,60,5ff3a352adaa099f7659f8cc,,,,,,,,,,,,,,,,,,,,PF,,,,,,,,6,3.698565,,,,,,,,,,,,,,,,,,,,,,,,,,,,5,114,78,1,0,0,response1disk,2,163,-34,-5,1,0,0,rectangle,-34,-5,1,0,0,6,2,0,0.00129,-34,-5,1,0,0,0,0,0,129,1,,,,,,,,,,,,,,,,,,,,,
,,,,,,,,,,,,,,,,,,,,,,,,,,,,,,,,,,,,,,,,,,,5fbec1472c47c30cb0dacd41,5ff3a40fbaa7c4a16543c882,2021-01-05_00h26.25.983,Colour_Similarity_Experiment_v1,2020.1.2,Win32,60,5ff3a352adaa099f7659f8cc,,,,,,,,,,,,,,,,,,,,PF,,,,,,,,7,2.129705,,,,,,,,,,,,,,,,,,,,,,,,,,,,9,56,158,1,0,0,response1disk,5,164,13,3,1,0,0,rectangle,13,3,1,0,0,6,1,0,0.005575,13,3,1,0,0,0,1,1,134,1,,,,,,,,,,,,,,,,,,,,,
,,,,,,,,,,,,,,,,,,,,,,,,,,,,,,,,,,,,,,,,,,,5fbec1472c47c30cb0dacd41,5ff3a40fbaa7c4a16543c882,2021-01-05_00h26.25.983,Colour_Similarity_Experiment_v1,2020.1.2,Win32,60,5ff3a352adaa099f7659f8cc,,,,,,,,,,,,,,,,,,,,FF,,,,,,,,4,3.43462,,,,,,,,,,,,,,,,,,,,,,,,,,,,3,37,-115,1,0,0,response3disk,6,165,22,13,1,0,0,rectangle,22,13,1,0,0,6,4,0,0.00152,22,13,1,0,0,0,2,2,95,1,,,,,,,,,,,,,,,,,,,,,
,,,,,,,,,,,,,,,,,,,,,,,,,,,,,,,,,,,,,,,,,,,5fbec1472c47c30cb0dacd41,5ff3a40fbaa7c4a16543c882,2021-01-05_00h26.25.983,Colour_Similarity_Experiment_v1,2020.1.2,Win32,60,5ff3a352adaa099f7659f8cc,,,,,,,,,,,,,,,,,,,,FF,,,,,,,,6,3.4056,,,,,,,,,,,,,,,,,,,,,,,,,,,,5,109,58,1,0,0,response1disk,9,166,1,4,1,0,0,rectangle,1,4,1,0,0,6,2,0,0.002165,1,4,1,0,0,0,3,3,61,1,,,,,,,,,,,,,,,,,,,,,
,,,,,,,,,,,,,,,,,,,,,,,,,,,,,,,,,,,,,,,,,,,5fbec1472c47c30cb0dacd41,5ff3a40fbaa7c4a16543c882,2021-01-05_00h26.25.983,Colour_Similarity_Experiment_v1,2020.1.2,Win32,60,5ff3a352adaa099f7659f8cc,,,,,,,,,,,,,,,,,,,,PF,,,,,,,,7,2.03675,,,,,,,,,,,,,,,,,,,,,,,,,,,,2,28,112,1,0,0,response1disk,4,167,-10,3,1,0,0,rectangle,-10,3,1,0,0,6,5,0,0.00145,-10,3,1,0,0,0,4,4,127,1,,,,,,,,,,,,,,,,,,,,,
,,,,,,,,,,,,,,,,,,,,,,,,,,,,,,,,,,,,,,,,,,,5fbec1472c47c30cb0dacd41,5ff3a40fbaa7c4a16543c882,2021-01-05_00h26.25.983,Colour_Similarity_Experiment_v1,2020.1.2,Win32,60,5ff3a352adaa099f7659f8cc,,,,,,,,,,,,,,,,,,,,PF,,,,,,,,7,1.9309,,,,,,,,,,,,,,,,,,,,,,,,,,,,2,59,123,1,0,0,response1disk,7,168,3,17,1,0,0,rectangle,3,17,1,0,0,6,6,0,0.001525,3,17,1,0,0,0,5,5,107,1,,,,,,,,,,,,,,,,,,,,,
,,,,,,,,,,,,,,,,,,,,,,,,,,,,,,,,,,,,,,,,,,,5fbec1472c47c30cb0dacd41,5ff3a40fbaa7c4a16543c882,2021-01-05_00h26.25.983,Colour_Similarity_Experiment_v1,2020.1.2,Win32,60,5ff3a352adaa099f7659f8cc,,,,,,,,,,,,,,,,,,,,PF,,,,,,,,0,1.68489,,,,,,,,,,,,,,,,,,,,,,,,,,,,1,-81,148,1,0,0,response7disk,1,169,-3,5,1,0,0,rectangle,-123,-43,1,0,0,6,2,1,2.339995,-18,1,1,0,0,0,6,6,76,1,response5disk_3,rectangle,,,,,,,,,,,,,,,,,,,
,,,,,,,,,,,,,,,,,,,,,,,,,,,,,,,,,,,,,,,,,,,5fbec1472c47c30cb0dacd41,5ff3a40fbaa7c4a16543c882,2021-01-05_00h26.25.983,Colour_Similarity_Experiment_v1,2020.1.2,Win32,60,5ff3a352adaa099f7659f8cc,,,,,,,,,,,,,,,,,,,,FF,,,,,,,,5,4.21384,,,,,,,,,,,,,,,,,,,,,,,,,,,,8,89,-35,1,0,0,response3disk,2,170,0,-2,1,0,0,rectangle,0,-2,1,0,0,6,7,0,0.011605,0,-2,1,0,0,0,7,7,22,1,,,,,,,,,,,,,,,,,,,,,
,,,,,,,,,,,,,,,,,,,,,,,,,,,,,,,,,,,,,,,,,,,5fbec1472c47c30cb0dacd41,5ff3a40fbaa7c4a16543c882,2021-01-05_00h26.25.983,Colour_Similarity_Experiment_v1,2020.1.2,Win32,60,5ff3a352adaa099f7659f8cc,,,,,,,,,,,,,,,,,,,,FF,,,,,,,,2,2.175325,,,,,,,,,,,,,,,,,,,,,,,,,,,,4,-74,-44,1,0,0,response5disk,3,171,-2,-4,1,0,0,rectangle,-2,-4,1,0,0,6,5,0,0.00127,-2,-4,1,0,0,0,8,8,77,1,,,,,,,,,,,,,,,,,,,,,
,,,,,,,,,,,,,,,,,,,,,,,,,,,,,,,,,,,,,,,,,,,5fbec1472c47c30cb0dacd41,5ff3a40fbaa7c4a16543c882,2021-01-05_00h26.25.983,Colour_Similarity_Experiment_v1,2020.1.2,Win32,60,5ff3a352adaa099f7659f8cc,,,,,,,,,,,,,,,,,,,,PF,,,,,,,,1,3.279435,,,,,,,,,,,,,,,,,,,,,,,,,,,,4,-119,65,1,0,0,response7disk,5,172,43,3,1,0,0,rectangle,43,3,1,0,0,6,4,0,0.001625,43,3,1,0,0,0,9,9,49,1,,,,,,,,,,,,,,,,,,,,,
,,,,,,,,,,,,,,,,,,,,,,,,,,,,,,,,,,,,,,,,,,,5fbec1472c47c30cb0dacd41,5ff3a40fbaa7c4a16543c882,2021-01-05_00h26.25.983,Colour_Similarity_Experiment_v1,2020.1.2,Win32,60,5ff3a352adaa099f7659f8cc,,,,,,,,,,,,,,,,,,,,FF,,,,,,,,1,1.44094,,,,,,,,,,,,,,,,,,,,,,,,,,,,4,-115,37,1,0,0,response7disk,5,173,24,-2,1,0,0,rectangle,24,-2,1,0,0,6,1,0,0.00144,24,-2,1,0,0,0,10,10,116,1,,,,,,,,,,,,,,,,,,,,,
,,,,,,,,,,,,,,,,,,,,,,,,,,,,,,,,,,,,,,,,,,,5fbec1472c47c30cb0dacd41,5ff3a40fbaa7c4a16543c882,2021-01-05_00h26.25.983,Colour_Similarity_Experiment_v1,2020.1.2,Win32,60,5ff3a352adaa099f7659f8cc,,,,,,,,,,,,,,,,,,,,FF,,,,,,,,1,1.60369,,,,,,,,,,,,,,,,,,,,,,,,,,,,3,-105,49,1,0,0,response7disk,5,174,-21,6,1,0,0,rectangle,-21,6,1,0,0,6,7,0,0.001555,-21,6,1,0,0,0,11,11,101,1,,,,,,,,,,,,,,,,,,,,,
,,,,,,,,,,,,,,,,,,,,,,,,,,,,,,,,,,,,,,,,,,,5fbec1472c47c30cb0dacd41,5ff3a40fbaa7c4a16543c882,2021-01-05_00h26.25.983,Colour_Similarity_Experiment_v1,2020.1.2,Win32,60,5ff3a352adaa099f7659f8cc,,,,,,,,,,,,,,,,,,,,PF,,,,,,,,7,2.133755,,,,,,,,,,,,,,,,,,,,,,,,,,,,4,48,131,1,0,0,response1disk,8,175,-13,13,1,0,0,rectangle,-13,13,1,0,0,6,6,0,0.00153,-13,13,1,0,0,0,12,12,124,1,,,,,,,,,,,,,,,,,,,,,
,,,,,,,,,,,,,,,,,,,,,,,,,,,,,,,,,,,,,,,,,,,5fbec1472c47c30cb0dacd41,5ff3a40fbaa7c4a16543c882,2021-01-05_00h26.25.983,Colour_Similarity_Experiment_v1,2020.1.2,Win32,60,5ff3a352adaa099f7659f8cc,,,,,,,,,,,,,,,,,,,,PF,,,,,,,,1,2.055235,,,,,,,,,,,,,,,,,,,,,,,,,,,,6,-106,46,1,0,0,response7disk,7,176,-18,18,1,0,0,rectangle,-18,18,1,0,0,6,6,0,0.001405,-18,18,1,0,0,0,13,13,50,1,,,,,,,,,,,,,,,,,,,,,
,,,,,,,,,,,,,,,,,,,,,,,,,,,,,,,,,,,,,,,,,,,5fbec1472c47c30cb0dacd41,5ff3a40fbaa7c4a16543c882,2021-01-05_00h26.25.983,Colour_Similarity_Experiment_v1,2020.1.2,Win32,60,5ff3a352adaa099f7659f8cc,,,,,,,,,,,,,,,,,,,,PF,,,,,,,,2,1.833375,,,,,,,,,,,,,,,,,,,,,,,,,,,,1,-97,-24,1,0,0,response5disk,9,177,-6,-1,1,0,0,rectangle,-6,-1,1,0,0,6,5,0,0.00142,-6,-1,1,0,0,0,14,14,15,1,,,,,,,,,,,,,,,,,,,,,
,,,,,,,,,,,,,,,,,,,,,,,,,,,,,,,,,,,,,,,,,,,5fbec1472c47c30cb0dacd41,5ff3a40fbaa7c4a16543c882,2021-01-05_00h26.25.983,Colour_Similarity_Experiment_v1,2020.1.2,Win32,60,5ff3a352adaa099f7659f8cc,,,,,,,,,,,,,,,,,,,,PF,,,,,,,,6,5.13181,,,,,,,,,,,,,,,,,,,,,,,,,,,,1,74,48,1,0,0,response1disk,4,178,14,18,1,0,0,rectangle,14,18,1,0,0,6,7,0,0.001515,14,18,1,0,0,0,15,15,139,1,,,,,,,,,,,,,,,,,,,,,
,,,,,,,,,,,,,,,,,,,,,,,,,,,,,,,,,,,,,,,,,,,5fbec1472c47c30cb0dacd41,5ff3a40fbaa7c4a16543c882,2021-01-05_00h26.25.983,Colour_Similarity_Experiment_v1,2020.1.2,Win32,60,5ff3a352adaa099f7659f8cc,,,,,,,,,,,,,,,,,,,,FF,,,,,,,,6,1.86671,,,,,,,,,,,,,,,,,,,,,,,,,,,,4,77,63,1,0,0,response1disk,2,179,5,15,1,0,0,rectangle,5,15,1,0,0,6,2,0,0.001715,5,15,1,0,0,0,16,16,13,1,,,,,,,,,,,,,,,,,,,,,
,,,,,,,,,,,,,,,,,,,,,,,,,,,,,,,,,,,,,,,,,,,5fbec1472c47c30cb0dacd41,5ff3a40fbaa7c4a16543c882,2021-01-05_00h26.25.983,Colour_Similarity_Experiment_v1,2020.1.2,Win32,60,5ff3a352adaa099f7659f8cc,,,,,,,,,,,,,,,,,,,,FF,,,,,,,,2,2.933015,,,,,,,,,,,,,,,,,,,,,,,,,,,,5,-117,-63,1,0,0,response5disk,6,180,2,8,1,0,0,rectangle,2,8,1,0,0,6,2,0,0.00125,2,8,1,0,0,0,17,17,12,1,,,,,,,,,,,,,,,,,,,,,
,,,,,,,,,,,,,,,,,,,,,,,,,,,,,,,,,,,,,,,,,,,5fbec1472c47c30cb0dacd41,5ff3a40fbaa7c4a16543c882,2021-01-05_00h26.25.983,Colour_Similarity_Experiment_v1,2020.1.2,Win32,60,5ff3a352adaa099f7659f8cc,,,,,,,,,,,,,,,,,,,,PF,,,,,,,,6,2.12212,,,,,,,,,,,,,,,,,,,,,,,,,,,,6,155,43,1,0,0,response1disk,2,181,-17,-2,1,0,0,rectangle,-17,-2,1,0,0,6,6,0,0.001225,-17,-2,1,0,0,0,18,18,130,1,,,,,,,,,,,,,,,,,,,,,
,,,,,,,,,,,,,,,,,,,,,,,,,,,,,,,,,,,,,,,,,,,5fbec1472c47c30cb0dacd41,5ff3a40fbaa7c4a16543c882,2021-01-05_00h26.25.983,Colour_Similarity_Experiment_v1,2020.1.2,Win32,60,5ff3a352adaa099f7659f8cc,,,,,,,,,,,,,,,,,,,,FF,,,,,,,,5,2.514935,,,,,,,,,,,,,,,,,,,,,,,,,,,,6,128,-55,1,0,0,response3disk,3,182,-6,3,1,0,0,rectangle,-6,3,1,0,0,6,7,0,0.001735,-6,3,1,0,0,0,19,19,21,1,,,,,,,,,,,,,,,,,,,,,
,,,,,,,,,,,,,,,,,,,,,,,,,,,,,,,,,,,,,,,,,,,5fbec1472c47c30cb0dacd41,5ff3a40fbaa7c4a16543c882,2021-01-05_00h26.25.983,Colour_Similarity_Experiment_v1,2020.1.2,Win32,60,5ff3a352adaa099f7659f8cc,,,,,,,,,,,,,,,,,,,,PF,,,,,,,,5,4.29152,,,,,,,,,,,,,,,,,,,,,,,,,,,,9,128,-41,1,0,0,response3disk,2,183,5,-13,1,0,0,rectangle,5,-13,1,0,0,6,1,0,0.00129,5,-13,1,0,0,0,20,20,157,1,,,,,,,,,,,,,,,,,,,,,
,,,,,,,,,,,,,,,,,,,,,,,,,,,,,,,,,,,,,,,,,,,5fbec1472c47c30cb0dacd41,5ff3a40fbaa7c4a16543c882,2021-01-05_00h26.25.983,Colour_Similarity_Experiment_v1,2020.1.2,Win32,60,5ff3a352adaa099f7659f8cc,,,,,,,,,,,,,,,,,,,,PF,,,,,,,,0,1.967175,,,,,,,,,,,,,,,,,,,,,,,,,,,,7,-47,109,1,0,0,response7disk,7,184,29,-13,1,0,0,rectangle,29,-13,1,0,0,6,0,0,0.001495,29,-13,1,0,0,0,21,21,51,1,,,,,,,,,,,,,,,,,,,,,
,,,,,,,,,,,,,,,,,,,,,,,,,,,,,,,,,,,,,,,,,,,5fbec1472c47c30cb0dacd41,5ff3a40fbaa7c4a16543c882,2021-01-05_00h26.25.983,Colour_Similarity_Experiment_v1,2020.1.2,Win32,60,5ff3a352adaa099f7659f8cc,,,,,,,,,,,,,,,,,,,,PF,,,,,,,,0,1.624185,,,,,,,,,,,,,,,,,,,,,,,,,,,,4,-35,90,1,0,0,response7disk,4,185,-20,3,1,0,0,rectangle,-20,3,1,0,0,6,4,0,0.001135,-20,3,1,0,0,0,22,22,70,1,,,,,,,,,,,,,,,,,,,,,
,,,,,,,,,,,,,,,,,,,,,,,,,,,,,,,,,,,,,,,,,,,5fbec1472c47c30cb0dacd41,5ff3a40fbaa7c4a16543c882,2021-01-05_00h26.25.983,Colour_Similarity_Experiment_v1,2020.1.2,Win32,60,5ff3a352adaa099f7659f8cc,,,,,,,,,,,,,,,,,,,,PF,,,,,,,,6,1.625215,,,,,,,,,,,,,,,,,,,,,,,,,,,,6,114,42,1,0,0,response1disk,8,186,-12,0,1,0,0,rectangle,-12,0,1,0,0,6,1,0,0.00158,-12,0,1,0,0,0,23,23,64,1,,,,,,,,,,,,,,,,,,,,,
,,,,,,,,,,,,,,,,,,,,,,,,,,,,,,,,,,,,,,,,,,,5fbec1472c47c30cb0dacd41,5ff3a40fbaa7c4a16543c882,2021-01-05_00h26.25.983,Colour_Similarity_Experiment_v1,2020.1.2,Win32,60,5ff3a352adaa099f7659f8cc,,,,,,,,,,,,,,,,,,,,PF,,,,,,,,7,1.756705,,,,,,,,,,,,,,,,,,,,,,,,,,,,3,64,108,1,0,0,response1disk,1,187,8,2,1,0,0,rectangle,8,2,1,0,0,6,5,0,0.001475,8,2,1,0,0,0,24,24,96,1,,,,,,,,,,,,,,,,,,,,,
,,,,,,,,,,,,,,,,,,,,,,,,,,,,,,,,,,,,,,,,,,,5fbec1472c47c30cb0dacd41,5ff3a40fbaa7c4a16543c882,2021-01-05_00h26.25.983,Colour_Similarity_Experiment_v1,2020.1.2,Win32,60,5ff3a352adaa099f7659f8cc,,,,,,,,,,,,,,,,,,,,FF,,,,,,,,0,1.51396,,,,,,,,,,,,,,,,,,,,,,,,,,,,6,-53,122,1,0,0,response7disk,6,188,3,-2,1,0,0,rectangle,3,-2,1,0,0,6,0,0,0.00127,3,-2,1,0,0,0,25,25,91,1,,,,,,,,,,,,,,,,,,,,,
,,,,,,,,,,,,,,,,,,,,,,,,,,,,,,,,,,,,,,,,,,,5fbec1472c47c30cb0dacd41,5ff3a40fbaa7c4a16543c882,2021-01-05_00h26.25.983,Colour_Similarity_Experiment_v1,2020.1.2,Win32,60,5ff3a352adaa099f7659f8cc,,,,,,,,,,,,,,,,,,,,FF,,,,,,,,6,3.54615,,,,,,,,,,,,,,,,,,,,,,,,,,,,3,102,40,1,0,0,response1disk,8,189,18,2,1,0,0,rectangle,18,2,1,0,0,6,1,0,0.001535,18,2,1,0,0,0,26,26,44,1,,,,,,,,,,,,,,,,,,,,,
,,,,,,,,,,,,,,,,,,,,,,,,,,,,,,,,,,,,,,,,,,,5fbec1472c47c30cb0dacd41,5ff3a40fbaa7c4a16543c882,2021-01-05_00h26.25.983,Colour_Similarity_Experiment_v1,2020.1.2,Win32,60,5ff3a352adaa099f7659f8cc,,,,,,,,,,,,,,,,,,,,FF,,,,,,,,7,1.569885,,,,,,,,,,,,,,,,,,,,,,,,,,,,4,98,137,1,0,0,response1disk,9,190,7,9,1,0,0,rectangle,7,9,1,0,0,6,5,0,0.001575,7,9,1,0,0,0,27,27,90,1,,,,,,,,,,,,,,,,,,,,,
,,,,,,,,,,,,,,,,,,,,,,,,,,,,,,,,,,,,,,,,,,,5fbec1472c47c30cb0dacd41,5ff3a40fbaa7c4a16543c882,2021-01-05_00h26.25.983,Colour_Similarity_Experiment_v1,2020.1.2,Win32,60,5ff3a352adaa099f7659f8cc,,,,,,,,,,,,,,,,,,,,PF,,,,,,,,6,1.857975,,,,,,,,,,,,,,,,,,,,,,,,,,,,2,102,40,1,0,0,response1disk,5,191,-7,-4,1,0,0,rectangle,-7,-4,1,0,0,6,4,0,0.003795,-7,-4,1,0,0,0,28,28,147,1,,,,,,,,,,,,,,,,,,,,,
,,,,,,,,,,,,,,,,,,,,,,,,,,,,,,,,,,,,,,,,,,,5fbec1472c47c30cb0dacd41,5ff3a40fbaa7c4a16543c882,2021-01-05_00h26.25.983,Colour_Similarity_Experiment_v1,2020.1.2,Win32,60,5ff3a352adaa099f7659f8cc,,,,,,,,,,,,,,,,,,,,PF,,,,,,,,0,1.88731,,,,,,,,,,,,,,,,,,,,,,,,,,,,6,-39,115,1,0,0,response7disk,6,192,-4,-10,1,0,0,rectangle,-4,-10,1,0,0,6,5,0,0.00146,-4,-10,1,0,0,0,29,29,0,1,,,,,,,,,,,,,,,,,,,,,
,,,,,,,,,,,,,,,,,,,,,,,,,,,,,,,,,,,,,,,,,,,5fbec1472c47c30cb0dacd41,5ff3a40fbaa7c4a16543c882,2021-01-05_00h26.25.983,Colour_Similarity_Experiment_v1,2020.1.2,Win32,60,5ff3a352adaa099f7659f8cc,,,,,,,,,,,,,,,,,,,,PF,,,,,,,,5,1.650035,,,,,,,,,,,,,,,,,,,,,,,,,,,,3,72,-33,1,0,0,response3disk,2,193,11,-5,1,0,0,rectangle,103,-54,1,0,0,5,5,1,2.09998,7,-9,1,0,0,0,30,30,36,1,response3disk_3,rectangle,,,,,,,,,,,,,,,,,,,
,,,,,,,,,,,,,,,,,,,,,,,,,,,,,,,,,,,,,,,,,,,5fbec1472c47c30cb0dacd41,5ff3a40fbaa7c4a16543c882,2021-01-05_00h26.25.983,Colour_Similarity_Experiment_v1,2020.1.2,Win32,60,5ff3a352adaa099f7659f8cc,,,,,,,,,,,,,,,,,,,,PF,,,,,,,,4,2.847745,,,,,,,,,,,,,,,,,,,,,,,,,,,,1,46,-87,1,0,0,response3disk,8,194,-21,9,1,0,0,rectangle,-21,9,1,0,0,5,3,0,0.001455,-21,9,1,0,0,0,31,31,65,1,,,,,,,,,,,,,,,,,,,,,
,,,,,,,,,,,,,,,,,,,,,,,,,,,,,,,,,,,,,,,,,,,5fbec1472c47c30cb0dacd41,5ff3a40fbaa7c4a16543c882,2021-01-05_00h26.25.983,Colour_Similarity_Experiment_v1,2020.1.2,Win32,60,5ff3a352adaa099f7659f8cc,,,,,,,,,,,,,,,,,,,,FF,,,,,,,,5,1.82117,,,,,,,,,,,,,,,,,,,,,,,,,,,,7,88,-56,1,0,0,response3disk,8,195,-24,3,1,0,0,rectangle,-164,45,1,0,0,1,1,1,2.183255,-5,-6,1,0,0,0,32,32,97,1,response7disk_3,rectangle,,,,,,,,,,,,,,,,,,,
,,,,,,,,,,,,,,,,,,,,,,,,,,,,,,,,,,,,,,,,,,,5fbec1472c47c30cb0dacd41,5ff3a40fbaa7c4a16543c882,2021-01-05_00h26.25.983,Colour_Similarity_Experiment_v1,2020.1.2,Win32,60,5ff3a352adaa099f7659f8cc,,,,,,,,,,,,,,,,,,,,PF,,,,,,,,6,3.3313,,,,,,,,,,,,,,,,,,,,,,,,,,,,8,131,64,1,0,0,response1disk,5,196,26,1,1,0,0,rectangle,26,1,1,0,0,1,3,0,0.00135,26,1,1,0,0,0,33,33,98,1,,,,,,,,,,,,,,,,,,,,,
,,,,,,,,,,,,,,,,,,,,,,,,,,,,,,,,,,,,,,,,,,,5fbec1472c47c30cb0dacd41,5ff3a40fbaa7c4a16543c882,2021-01-05_00h26.25.983,Colour_Similarity_Experiment_v1,2020.1.2,Win32,60,5ff3a352adaa099f7659f8cc,,,,,,,,,,,,,,,,,,,,FF,,,,,,,,6,10.51288,,,,,,,,,,,,,,,,,,,,,,,,,,,,2,112,74,1,0,0,response1disk,4,197,-2,9,1,0,0,rectangle,-2,9,1,0,0,1,2,0,0.0123,-2,9,1,0,0,0,34,34,145,1,,,,,,,,,,,,,,,,,,,,,
,,,,,,,,,,,,,,,,,,,,,,,,,,,,,,,,,,,,,,,,,,,5fbec1472c47c30cb0dacd41,5ff3a40fbaa7c4a16543c882,2021-01-05_00h26.25.983,Colour_Similarity_Experiment_v1,2020.1.2,Win32,60,5ff3a352adaa099f7659f8cc,,,,,,,,,,,,,,,,,,,,FF,,,,,,,,6,7.061285,,,,,,,,,,,,,,,,,,,,,,,,,,,,8,104,50,1,0,0,response1disk,3,198,1,11,1,0,0,rectangle,1,11,1,0,0,1,3,0,0.00165,1,11,1,0,0,0,35,35,154,1,,,,,,,,,,,,,,,,,,,,,
,,,,,,,,,,,,,,,,,,,,,,,,,,,,,,,,,,,,,,,,,,,5fbec1472c47c30cb0dacd41,5ff3a40fbaa7c4a16543c882,2021-01-05_00h26.25.983,Colour_Similarity_Experiment_v1,2020.1.2,Win32,60,5ff3a352adaa099f7659f8cc,,,,,,,,,,,,,,,,,,,,FF,,,,,,,,7,2.82184,,,,,,,,,,,,,,,,,,,,,,,,,,,,7,91,141,1,0,0,response1disk,1,199,-10,2,1,0,0,rectangle,-10,2,1,0,0,1,0,0,0.014545,-10,2,1,0,0,0,36,36,132,1,,,,,,,,,,,,,,,,,,,,,
,,,,,,,,,,,,,,,,,,,,,,,,,,,,,,,,,,,,,,,,,,,5fbec1472c47c30cb0dacd41,5ff3a40fbaa7c4a16543c882,2021-01-05_00h26.25.983,Colour_Similarity_Experiment_v1,2020.1.2,Win32,60,5ff3a352adaa099f7659f8cc,,,,,,,,,,,,,,,,,,,,PF,,,,,,,,0,1.64967,,,,,,,,,,,,,,,,,,,,,,,,,,,,8,-82,118,1,0,0,response7disk,8,200,-19,10,1,0,0,rectangle,-19,10,1,0,0,1,1,0,0.00324,-19,10,1,0,0,0,37,37,153,1,,,,,,,,,,,,,,,,,,,,,
,,,,,,,,,,,,,,,,,,,,,,,,,,,,,,,,,,,,,,,,,,,5fbec1472c47c30cb0dacd41,5ff3a40fbaa7c4a16543c882,2021-01-05_00h26.25.983,Colour_Similarity_Experiment_v1,2020.1.2,Win32,60,5ff3a352adaa099f7659f8cc,,,,,,,,,,,,,,,,,,,,FF,,,,,,,,5,3.082975,,,,,,,,,,,,,,,,,,,,,,,,,,,,7,96,-35,1,0,0,response3disk,9,201,-38,11,1,0,0,rectangle,-38,11,1,0,0,1,2,0,0.001675,-38,11,1,0,0,0,38,38,155,1,,,,,,,,,,,,,,,,,,,,,
,,,,,,,,,,,,,,,,,,,,,,,,,,,,,,,,,,,,,,,,,,,5fbec1472c47c30cb0dacd41,5ff3a40fbaa7c4a16543c882,2021-01-05_00h26.25.983,Colour_Similarity_Experiment_v1,2020.1.2,Win32,60,5ff3a352adaa099f7659f8cc,,,,,,,,,,,,,,,,,,,,PF,,,,,,,,5,2.783705,,,,,,,,,,,,,,,,,,,,,,,,,,,,4,114,-64,1,0,0,response3disk,7,202,-25,2,1,0,0,rectangle,-25,2,1,0,0,1,0,0,0.00183,-25,2,1,0,0,0,39,39,38,1,,,,,,,,,,,,,,,,,,,,,
,,,,,,,,,,,,,,,,,,,,,,,,,,,,,,,,,,,,,,,,,,,5fbec1472c47c30cb0dacd41,5ff3a40fbaa7c4a16543c882,2021-01-05_00h26.25.983,Colour_Similarity_Experiment_v1,2020.1.2,Win32,60,5ff3a352adaa099f7659f8cc,,,,,,,,,,,,,,,,,,,,FF,,,,,,,,4,2.15362,,,,,,,,,,,,,,,,,,,,,,,,,,,,2,48,-75,1,0,0,response3disk,7,203,11,1,1,0,0,rectangle,11,1,1,0,0,1,3,0,0.00154,11,1,1,0,0,0,40,40,63,1,,,,,,,,,,,,,,,,,,,,,
,,,,,,,,,,,,,,,,,,,,,,,,,,,,,,,,,,,,,,,,,,,5fbec1472c47c30cb0dacd41,5ff3a40fbaa7c4a16543c882,2021-01-05_00h26.25.983,Colour_Similarity_Experiment_v1,2020.1.2,Win32,60,5ff3a352adaa099f7659f8cc,,,,,,,,,,,,,,,,,,,,FF,,,,,,,,7,2.092315,,,,,,,,,,,,,,,,,,,,,,,,,,,,6,56,104,1,0,0,response1disk,1,204,13,18,1,0,0,rectangle,13,18,1,0,0,1,0,0,0.001135,13,18,1,0,0,0,41,41,5,1,,,,,,,,,,,,,,,,,,,,,
,,,,,,,,,,,,,,,,,,,,,,,,,,,,,,,,,,,,,,,,,,,5fbec1472c47c30cb0dacd41,5ff3a40fbaa7c4a16543c882,2021-01-05_00h26.25.983,Colour_Similarity_Experiment_v1,2020.1.2,Win32,60,5ff3a352adaa099f7659f8cc,,,,,,,,,,,,,,,,,,,,FF,,,,,,,,7,1.61624,,,,,,,,,,,,,,,,,,,,,,,,,,,,8,49,101,1,0,0,response1disk,4,205,-7,-9,1,0,0,rectangle,-7,-9,1,0,0,1,4,0,0.0012,-7,-9,1,0,0,0,42,42,88,1,,,,,,,,,,,,,,,,,,,,,
,,,,,,,,,,,,,,,,,,,,,,,,,,,,,,,,,,,,,,,,,,,5fbec1472c47c30cb0dacd41,5ff3a40fbaa7c4a16543c882,2021-01-05_00h26.25.983,Colour_Similarity_Experiment_v1,2020.1.2,Win32,60,5ff3a352adaa099f7659f8cc,,,,,,,,,,,,,,,,,,,,PF,,,,,,,,6,2.96514,,,,,,,,,,,,,,,,,,,,,,,,,,,,7,90,58,1,0,0,response1disk,2,206,-8,-4,1,0,0,rectangle,-8,-4,1,0,0,1,5,0,0.001625,-8,-4,1,0,0,0,43,43,32,1,,,,,,,,,,,,,,,,,,,,,
,,,,,,,,,,,,,,,,,,,,,,,,,,,,,,,,,,,,,,,,,,,5fbec1472c47c30cb0dacd41,5ff3a40fbaa7c4a16543c882,2021-01-05_00h26.25.983,Colour_Similarity_Experiment_v1,2020.1.2,Win32,60,5ff3a352adaa099f7659f8cc,,,,,,,,,,,,,,,,,,,,PF,,,,,,,,5,2.63061,,,,,,,,,,,,,,,,,,,,,,,,,,,,3,75,-50,1,0,0,response3disk,7,207,21,0,1,0,0,rectangle,21,0,1,0,0,1,1,0,0.00136,21,0,1,0,0,0,44,44,41,1,,,,,,,,,,,,,,,,,,,,,
,,,,,,,,,,,,,,,,,,,,,,,,,,,,,,,,,,,,,,,,,,,5fbec1472c47c30cb0dacd41,5ff3a40fbaa7c4a16543c882,2021-01-05_00h26.25.983,Colour_Similarity_Experiment_v1,2020.1.2,Win32,60,5ff3a352adaa099f7659f8cc,,,,,,,,,,,,,,,,,,,,FF,,,,,,,,7,2.17222,,,,,,,,,,,,,,,,,,,,,,,,,,,,6,65,160,1,0,0,response1disk,9,208,2,3,1,0,0,rectangle,44,136,1,0,0,7,7,1,1.975945,-10,-10,1,0,0,0,45,45,160,1,response1disk_3,rectangle,,,,,,,,,,,,,,,,,,,
,,,,,,,,,,,,,,,,,,,,,,,,,,,,,,,,,,,,,,,,,,,5fbec1472c47c30cb0dacd41,5ff3a40fbaa7c4a16543c882,2021-01-05_00h26.25.983,Colour_Similarity_Experiment_v1,2020.1.2,Win32,60,5ff3a352adaa099f7659f8cc,,,,,,,,,,,,,,,,,,,,FF,,,,,,,,7,3.000335,,,,,,,,,,,,,,,,,,,,,,,,,,,,4,92,144,1,0,0,response1disk,8,209,15,12,1,0,0,rectangle,15,12,1,0,0,7,7,0,0.00142,15,12,1,0,0,0,46,46,35,1,,,,,,,,,,,,,,,,,,,,,
,,,,,,,,,,,,,,,,,,,,,,,,,,,,,,,,,,,,,,,,,,,5fbec1472c47c30cb0dacd41,5ff3a40fbaa7c4a16543c882,2021-01-05_00h26.25.983,Colour_Similarity_Experiment_v1,2020.1.2,Win32,60,5ff3a352adaa099f7659f8cc,,,,,,,,,,,,,,,,,,,,PF,,,,,,,,4,2.29816,,,,,,,,,,,,,,,,,,,,,,,,,,,,6,36,-102,1,0,0,response3disk,3,210,-20,-5,1,0,0,rectangle,-20,-5,1,0,0,7,5,0,0.00136,-20,-5,1,0,0,0,47,47,26,1,,,,,,,,,,,,,,,,,,,,,
,,,,,,,,,,,,,,,,,,,,,,,,,,,,,,,,,,,,,,,,,,,5fbec1472c47c30cb0dacd41,5ff3a40fbaa7c4a16543c882,2021-01-05_00h26.25.983,Colour_Similarity_Experiment_v1,2020.1.2,Win32,60,5ff3a352adaa099f7659f8cc,,,,,,,,,,,,,,,,,,,,FF,,,,,,,,3,2.484855,,,,,,,,,,,,,,,,,,,,,,,,,,,,1,-87,-122,1,0,0,response5disk,2,211,-14,12,1,0,0,rectangle,-14,12,1,0,0,7,2,0,0.001515,-14,12,1,0,0,0,48,48,2,1,,,,,,,,,,,,,,,,,,,,,
,,,,,,,,,,,,,,,,,,,,,,,,,,,,,,,,,,,,,,,,,,,5fbec1472c47c30cb0dacd41,5ff3a40fbaa7c4a16543c882,2021-01-05_00h26.25.983,Colour_Similarity_Experiment_v1,2020.1.2,Win32,60,5ff3a352adaa099f7659f8cc,,,,,,,,,,,,,,,,,,,,PF,,,,,,,,2,1.52174,,,,,,,,,,,,,,,,,,,,,,,,,,,,3,-93,-47,1,0,0,response5disk,5,212,-5,12,1,0,0,rectangle,-5,12,1,0,0,7,4,0,0.001245,-5,12,1,0,0,0,49,49,66,1,,,,,,,,,,,,,,,,,,,,,
,,,,,,,,,,,,,,,,,,,,,,,,,,,,,,,,,,,,,,,,,,,5fbec1472c47c30cb0dacd41,5ff3a40fbaa7c4a16543c882,2021-01-05_00h26.25.983,Colour_Similarity_Experiment_v1,2020.1.2,Win32,60,5ff3a352adaa099f7659f8cc,,,,,,,,,,,,,,,,,,,,PF,,,,,,,,3,2.341535,,,,,,,,,,,,,,,,,,,,,,,,,,,,2,-36,-71,1,0,0,response5disk,9,213,-6,6,1,0,0,rectangle,-6,6,1,0,0,7,0,0,0.001645,-6,6,1,0,0,0,50,50,39,1,,,,,,,,,,,,,,,,,,,,,
,,,,,,,,,,,,,,,,,,,,,,,,,,,,,,,,,,,,,,,,,,,5fbec1472c47c30cb0dacd41,5ff3a40fbaa7c4a16543c882,2021-01-05_00h26.25.983,Colour_Similarity_Experiment_v1,2020.1.2,Win32,60,5ff3a352adaa099f7659f8cc,,,,,,,,,,,,,,,,,,,,FF,,,,,,,,6,2.433135,,,,,,,,,,,,,,,,,,,,,,,,,,,,6,138,77,1,0,0,response1disk,8,214,4,7,1,0,0,rectangle,4,7,1,0,0,7,3,0,0.001735,4,7,1,0,0,0,51,51,133,1,,,,,,,,,,,,,,,,,,,,,
,,,,,,,,,,,,,,,,,,,,,,,,,,,,,,,,,,,,,,,,,,,5fbec1472c47c30cb0dacd41,5ff3a40fbaa7c4a16543c882,2021-01-05_00h26.25.983,Colour_Similarity_Experiment_v1,2020.1.2,Win32,60,5ff3a352adaa099f7659f8cc,,,,,,,,,,,,,,,,,,,,FF,,,,,,,,7,3.45866,,,,,,,,,,,,,,,,,,,,,,,,,,,,4,74,133,1,0,0,response1disk,6,215,-6,20,1,0,0,rectangle,-6,20,1,0,0,7,7,0,0.00164,-6,20,1,0,0,0,52,52,122,1,,,,,,,,,,,,,,,,,,,,,
,,,,,,,,,,,,,,,,,,,,,,,,,,,,,,,,,,,,,,,,,,,5fbec1472c47c30cb0dacd41,5ff3a40fbaa7c4a16543c882,2021-01-05_00h26.25.983,Colour_Similarity_Experiment_v1,2020.1.2,Win32,60,5ff3a352adaa099f7659f8cc,,,,,,,,,,,,,,,,,,,,FF,,,,,,,,1,2.881885,,,,,,,,,,,,,,,,,,,,,,,,,,,,5,-143,59,1,0,0,response7disk,4,216,-17,8,1,0,0,rectangle,-17,8,1,0,0,7,1,0,0.001505,-17,8,1,0,0,0,53,53,8,1,,,,,,,,,,,,,,,,,,,,,
,,,,,,,,,,,,,,,,,,,,,,,,,,,,,,,,,,,,,,,,,,,5fbec1472c47c30cb0dacd41,5ff3a40fbaa7c4a16543c882,2021-01-05_00h26.25.983,Colour_Similarity_Experiment_v1,2020.1.2,Win32,60,5ff3a352adaa099f7659f8cc,,,,,,,,,,,,,,,,,,,,PF,,,,,,,,7,1.90218,,,,,,,,,,,,,,,,,,,,,,,,,,,,5,51,98,1,0,0,response1disk,9,217,2,-1,1,0,0,rectangle,-107,30,1,0,0,1,1,1,1.524625,19,-1,1,0,0,0,54,54,136,1,response7disk_3,rectangle,,,,,,,,,,,,,,,,,,,
,,,,,,,,,,,,,,,,,,,,,,,,,,,,,,,,,,,,,,,,,,,5fbec1472c47c30cb0dacd41,5ff3a40fbaa7c4a16543c882,2021-01-05_00h26.25.983,Colour_Similarity_Experiment_v1,2020.1.2,Win32,60,5ff3a352adaa099f7659f8cc,,,,,,,,,,,,,,,,,,,,FF,,,,,,,,5,2.12008,,,,,,,,,,,,,,,,,,,,,,,,,,,,8,101,-62,1,0,0,response3disk,7,218,4,10,1,0,0,rectangle,4,10,1,0,0,1,7,0,0.00119,4,10,1,0,0,0,55,55,86,1,,,,,,,,,,,,,,,,,,,,,
,,,,,,,,,,,,,,,,,,,,,,,,,,,,,,,,,,,,,,,,,,,5fbec1472c47c30cb0dacd41,5ff3a40fbaa7c4a16543c882,2021-01-05_00h26.25.983,Colour_Similarity_Experiment_v1,2020.1.2,Win32,60,5ff3a352adaa099f7659f8cc,,,,,,,,,,,,,,,,,,,,FF,,,,,,,,0,1.73795,,,,,,,,,,,,,,,,,,,,,,,,,,,,1,-58,111,1,0,0,response7disk,1,219,-17,-15,1,0,0,rectangle,-17,-15,1,0,0,1,4,0,0.001585,-17,-15,1,0,0,0,56,56,151,1,,,,,,,,,,,,,,,,,,,,,
,,,,,,,,,,,,,,,,,,,,,,,,,,,,,,,,,,,,,,,,,,,5fbec1472c47c30cb0dacd41,5ff3a40fbaa7c4a16543c882,2021-01-05_00h26.25.983,Colour_Similarity_Experiment_v1,2020.1.2,Win32,60,5ff3a352adaa099f7659f8cc,,,,,,,,,,,,,,,,,,,,PF,,,,,,,,4,2.16294,,,,,,,,,,,,,,,,,,,,,,,,,,,,7,53,-73,1,0,0,response3disk,4,220,10,-7,1,0,0,rectangle,10,-7,1,0,0,1,5,0,0.00157,10,-7,1,0,0,0,57,57,43,1,,,,,,,,,,,,,,,,,,,,,
,,,,,,,,,,,,,,,,,,,,,,,,,,,,,,,,,,,,,,,,,,,5fbec1472c47c30cb0dacd41,5ff3a40fbaa7c4a16543c882,2021-01-05_00h26.25.983,Colour_Similarity_Experiment_v1,2020.1.2,Win32,60,5ff3a352adaa099f7659f8cc,,,,,,,,,,,,,,,,,,,,PF,,,,,,,,7,1.786,,,,,,,,,,,,,,,,,,,,,,,,,,,,4,51,96,1,0,0,response1disk,1,221,-7,3,1,0,0,rectangle,-7,3,1,0,0,1,2,0,0.001105,-7,3,1,0,0,0,58,58,115,1,,,,,,,,,,,,,,,,,,,,,
,,,,,,,,,,,,,,,,,,,,,,,,,,,,,,,,,,,,,,,,,,,5fbec1472c47c30cb0dacd41,5ff3a40fbaa7c4a16543c882,2021-01-05_00h26.25.983,Colour_Similarity_Experiment_v1,2020.1.2,Win32,60,5ff3a352adaa099f7659f8cc,,,,,,,,,,,,,,,,,,,,FF,,,,,,,,6,2.033165,,,,,,,,,,,,,,,,,,,,,,,,,,,,1,64,51,1,0,0,response1disk,3,222,4,-3,1,0,0,rectangle,4,-3,1,0,0,1,7,0,0.001475,4,-3,1,0,0,0,59,59,99,1,,,,,,,,,,,,,,,,,,,,,
,,,,,,,,,,,,,,,,,,,,,,,,,,,,,,,,,,,,,,,,,,,5fbec1472c47c30cb0dacd41,5ff3a40fbaa7c4a16543c882,2021-01-05_00h26.25.983,Colour_Similarity_Experiment_v1,2020.1.2,Win32,60,5ff3a352adaa099f7659f8cc,,,,,,,,,,,,,,,,,,,,FF,,,,,,,,2,2.120465,,,,,,,,,,,,,,,,,,,,,,,,,,,,5,-75,-48,1,0,0,response5disk,3,223,-3,-2,1,0,0,rectangle,-3,-2,1,0,0,1,4,0,0.0012,-3,-2,1,0,0,0,60,60,25,1,,,,,,,,,,,,,,,,,,,,,
,,,,,,,,,,,,,,,,,,,,,,,,,,,,,,,,,,,,,,,,,,,5fbec1472c47c30cb0dacd41,5ff3a40fbaa7c4a16543c882,2021-01-05_00h26.25.983,Colour_Similarity_Experiment_v1,2020.1.2,Win32,60,5ff3a352adaa099f7659f8cc,,,,,,,,,,,,,,,,,,,,PF,,,,,,,,5,2.03213,,,,,,,,,,,,,,,,,,,,,,,,,,,,8,134,-48,1,0,0,response3disk,6,224,3,-1,1,0,0,rectangle,-57,-86,1,0,0,3,3,1,1.94157,-14,-4,1,0,0,0,61,61,161,1,response5disk_3,rectangle,,,,,,,,,,,,,,,,,,,
,,,,,,,,,,,,,,,,,,,,,,,,,,,,,,,,,,,,,,,,,,,5fbec1472c47c30cb0dacd41,5ff3a40fbaa7c4a16543c882,2021-01-05_00h26.25.983,Colour_Similarity_Experiment_v1,2020.1.2,Win32,60,5ff3a352adaa099f7659f8cc,,,,,,,,,,,,,,,,,,,,PF,,,,,,,,6,1.951525,,,,,,,,,,,,,,,,,,,,,,,,,,,,9,107,44,1,0,0,response1disk,3,225,-12,7,1,0,0,rectangle,-12,7,1,0,0,3,1,0,0.04202,-12,7,1,0,0,0,62,62,119,1,,,,,,,,,,,,,,,,,,,,,
,,,,,,,,,,,,,,,,,,,,,,,,,,,,,,,,,,,,,,,,,,,5fbec1472c47c30cb0dacd41,5ff3a40fbaa7c4a16543c882,2021-01-05_00h26.25.983,Colour_Similarity_Experiment_v1,2020.1.2,Win32,60,5ff3a352adaa099f7659f8cc,,,,,,,,,,,,,,,,,,,,FF,,,,,,,,5,2.016335,,,,,,,,,,,,,,,,,,,,,,,,,,,,7,108,-72,1,0,0,response3disk,3,226,-19,20,1,0,0,rectangle,-19,20,1,0,0,3,6,0,0.00164,-19,20,1,0,0,0,63,63,73,1,,,,,,,,,,,,,,,,,,,,,
,,,,,,,,,,,,,,,,,,,,,,,,,,,,,,,,,,,,,,,,,,,5fbec1472c47c30cb0dacd41,5ff3a40fbaa7c4a16543c882,2021-01-05_00h26.25.983,Colour_Similarity_Experiment_v1,2020.1.2,Win32,60,5ff3a352adaa099f7659f8cc,,,,,,,,,,,,,,,,,,,,FF,,,,,,,,0,1.63849,,,,,,,,,,,,,,,,,,,,,,,,,,,,2,-52,139,1,0,0,response7disk,2,227,10,8,1,0,0,rectangle,10,8,1,0,0,3,3,0,0.0017,10,8,1,0,0,0,64,64,142,1,,,,,,,,,,,,,,,,,,,,,
,,,,,,,,,,,,,,,,,,,,,,,,,,,,,,,,,,,,,,,,,,,5fbec1472c47c30cb0dacd41,5ff3a40fbaa7c4a16543c882,2021-01-05_00h26.25.983,Colour_Similarity_Experiment_v1,2020.1.2,Win32,60,5ff3a352adaa099f7659f8cc,,,,,,,,,,,,,,,,,,,,PF,,,,,,,,0,1.542365,,,,,,,,,,,,,,,,,,,,,,,,,,,,9,-54,120,1,0,0,response7disk,9,228,3,11,1,0,0,rectangle,3,11,1,0,0,3,7,0,0.00276,3,11,1,0,0,0,65,65,106,1,,,,,,,,,,,,,,,,,,,,,
,,,,,,,,,,,,,,,,,,,,,,,,,,,,,,,,,,,,,,,,,,,5fbec1472c47c30cb0dacd41,5ff3a40fbaa7c4a16543c882,2021-01-05_00h26.25.983,Colour_Similarity_Experiment_v1,2020.1.2,Win32,60,5ff3a352adaa099f7659f8cc,,,,,,,,,,,,,,,,,,,,PF,,,,,,,,7,1.73505,,,,,,,,,,,,,,,,,,,,,,,,,,,,8,60,115,1,0,0,response1disk,4,229,-8,-2,1,0,0,rectangle,-8,-2,1,0,0,3,5,0,0.001115,-8,-2,1,0,0,0,66,66,78,1,,,,,,,,,,,,,,,,,,,,,
,,,,,,,,,,,,,,,,,,,,,,,,,,,,,,,,,,,,,,,,,,,5fbec1472c47c30cb0dacd41,5ff3a40fbaa7c4a16543c882,2021-01-05_00h26.25.983,Colour_Similarity_Experiment_v1,2020.1.2,Win32,60,5ff3a352adaa099f7659f8cc,,,,,,,,,,,,,,,,,,,,PF,,,,,,,,5,2.65163,,,,,,,,,,,,,,,,,,,,,,,,,,,,2,91,-37,1,0,0,response3disk,8,230,-6,7,1,0,0,rectangle,-6,7,1,0,0,3,7,0,0.00154,-6,7,1,0,0,0,67,67,52,1,,,,,,,,,,,,,,,,,,,,,
,,,,,,,,,,,,,,,,,,,,,,,,,,,,,,,,,,,,,,,,,,,5fbec1472c47c30cb0dacd41,5ff3a40fbaa7c4a16543c882,2021-01-05_00h26.25.983,Colour_Similarity_Experiment_v1,2020.1.2,Win32,60,5ff3a352adaa099f7659f8cc,,,,,,,,,,,,,,,,,,,,FF,,,,,,,,4,2.456,,,,,,,,,,,,,,,,,,,,,,,,,,,,7,68,-117,1,0,0,response3disk,4,231,10,-12,1,0,0,rectangle,10,-12,1,0,0,3,0,0,0.001565,10,-12,1,0,0,0,68,68,158,1,,,,,,,,,,,,,,,,,,,,,
,,,,,,,,,,,,,,,,,,,,,,,,,,,,,,,,,,,,,,,,,,,5fbec1472c47c30cb0dacd41,5ff3a40fbaa7c4a16543c882,2021-01-05_00h26.25.983,Colour_Similarity_Experiment_v1,2020.1.2,Win32,60,5ff3a352adaa099f7659f8cc,,,,,,,,,,,,,,,,,,,,PF,,,,,,,,1,2.598515,,,,,,,,,,,,,,,,,,,,,,,,,,,,8,-112,57,1,0,0,response7disk,9,232,-3,-4,1,0,0,rectangle,-3,-4,1,0,0,3,5,0,0.001845,-3,-4,1,0,0,0,69,69,42,1,,,,,,,,,,,,,,,,,,,,,
,,,,,,,,,,,,,,,,,,,,,,,,,,,,,,,,,,,,,,,,,,,5fbec1472c47c30cb0dacd41,5ff3a40fbaa7c4a16543c882,2021-01-05_00h26.25.983,Colour_Similarity_Experiment_v1,2020.1.2,Win32,60,5ff3a352adaa099f7659f8cc,,,,,,,,,,,,,,,,,,,,PF,,,,,,,,3,2.44344,,,,,,,,,,,,,,,,,,,,,,,,,,,,5,-81,-104,1,0,0,response5disk,7,233,-8,-5,1,0,0,rectangle,-8,-5,1,0,0,3,0,0,0.00159,-8,-5,1,0,0,0,70,70,146,1,,,,,,,,,,,,,,,,,,,,,
,,,,,,,,,,,,,,,,,,,,,,,,,,,,,,,,,,,,,,,,,,,5fbec1472c47c30cb0dacd41,5ff3a40fbaa7c4a16543c882,2021-01-05_00h26.25.983,Colour_Similarity_Experiment_v1,2020.1.2,Win32,60,5ff3a352adaa099f7659f8cc,,,,,,,,,,,,,,,,,,,,PF,,,,,,,,4,2.29623,,,,,,,,,,,,,,,,,,,,,,,,,,,,3,34,-98,1,0,0,response3disk,6,234,-4,8,1,0,0,rectangle,-4,8,1,0,0,3,3,0,0.00167,-4,8,1,0,0,0,71,71,47,1,,,,,,,,,,,,,,,,,,,,,
,,,,,,,,,,,,,,,,,,,,,,,,,,,,,,,,,,,,,,,,,,,5fbec1472c47c30cb0dacd41,5ff3a40fbaa7c4a16543c882,2021-01-05_00h26.25.983,Colour_Similarity_Experiment_v1,2020.1.2,Win32,60,5ff3a352adaa099f7659f8cc,,,,,,,,,,,,,,,,,,,,FF,,,,,,,,6,1.727005,,,,,,,,,,,,,,,,,,,,,,,,,,,,9,126,33,1,0,0,response1disk,5,235,2,5,1,0,0,rectangle,2,5,1,0,0,3,7,0,0.00166,2,5,1,0,0,0,72,72,128,1,,,,,,,,,,,,,,,,,,,,,
,,,,,,,,,,,,,,,,,,,,,,,,,,,,,,,,,,,,,,,,,,,5fbec1472c47c30cb0dacd41,5ff3a40fbaa7c4a16543c882,2021-01-05_00h26.25.983,Colour_Similarity_Experiment_v1,2020.1.2,Win32,60,5ff3a352adaa099f7659f8cc,,,,,,,,,,,,,,,,,,,,PF,,,,,,,,7,1.66146,,,,,,,,,,,,,,,,,,,,,,,,,,,,1,52,75,1,0,0,response1disk,5,236,-2,11,1,0,0,rectangle,-2,11,1,0,0,3,0,0,0.001825,-2,11,1,0,0,0,73,73,28,1,,,,,,,,,,,,,,,,,,,,,
,,,,,,,,,,,,,,,,,,,,,,,,,,,,,,,,,,,,,,,,,,,5fbec1472c47c30cb0dacd41,5ff3a40fbaa7c4a16543c882,2021-01-05_00h26.25.983,Colour_Similarity_Experiment_v1,2020.1.2,Win32,60,5ff3a352adaa099f7659f8cc,,,,,,,,,,,,,,,,,,,,PF,,,,,,,,1,1.466795,,,,,,,,,,,,,,,,,,,,,,,,,,,,3,-77,35,1,0,0,response7disk,4,237,-9,-8,1,0,0,rectangle,-9,-8,1,0,0,3,7,0,0.002065,-9,-8,1,0,0,0,74,74,30,1,,,,,,,,,,,,,,,,,,,,,
