key_resp.keys,key_resp.rt,key_resp_16.keys,key_resp_16.rt,key_resp_2.keys,key_resp_2.rt,X Scale,ratio_pxpermm,screen_size_x,screen_size_y,testsize,key_resp_3.keys,key_resp_3.rt,key_resp_4.keys,key_resp_4.rt,line_size,key_resp_5.keys,key_resp_5.rt,key_resp_6.keys,key_resp_6.rt,key_resp_8.keys,key_resp_8.rt,key_resp_7.keys,key_resp_7.rt,key_resp_12.keys,key_resp_12.rt,key_resp_11.keys,key_resp_11.rt,key_resp_18.keys,key_resp_18.rt,key_resp_21.keys,key_resp_21.rt,key_resp_13.keys,key_resp_13.rt,key_resp_19.keys,key_resp_19.rt,ballposx,viewer_distance,trials.thisRepN,trials.thisTrialN,trials.thisN,trials.thisIndex,trials.ran,participant,session,date,expName,psychopyVersion,OS,frameRate,study_id,viewerdistancecm,DVA_to_distance,radius_F,radius_P,r_F,R_P,key_resp_20.keys,key_resp_20.rt,key_resp_14.keys,key_resp_14.rt,key_resp_15.keys,key_resp_15.rt,key_resp_17.keys,key_resp_17.rt,key_resp_9.keys,key_resp_9.rt,key_resp_10.keys,key_resp_10.rt,Colour_1,Ecc,mouse_5.x,mouse_5.y,mouse_5.leftButton,mouse_5.midButton,mouse_5.rightButton,mouse_5.clicked_name,Colour_2,similarity,response_time,mouse_10.x,mouse_10.y,mouse_10.leftButton,mouse_10.midButton,mouse_10.rightButton,mouse_10.clicked_name,mouse_7.x,mouse_7.y,mouse_7.leftButton,mouse_7.midButton,mouse_7.rightButton,catchnumberprac,mouse_6.x,mouse_6.y,mouse_6.leftButton,mouse_6.midButton,mouse_6.rightButton,duringprac.thisRepN,duringprac.thisTrialN,duringprac.thisN,duringprac.thisIndex,duringprac.ran,mouse_7.clicked_name,catchprac,mouse_6.clicked_name,key_resp_22.keys,key_resp_22.rt,Colour1,mouse.x,mouse.y,mouse.leftButton,mouse.midButton,mouse.rightButton,mouse.clicked_name,Colour2,trialnumber,mouse_2.x,mouse_2.y,mouse_2.leftButton,mouse_2.midButton,mouse_2.rightButton,mouse_2.clicked_name,mouse_3.x,mouse_3.y,mouse_3.leftButton,mouse_3.midButton,mouse_3.rightButton,catchresponse,catchnumber,Catch,response_time_catch,mouse_11.x,mouse_11.y,mouse_11.leftButton,mouse_11.midButton,mouse_11.rightButton,trials_2.thisRepN,trials_2.thisTrialN,trials_2.thisN,trials_2.thisIndex,trials_2.ran,mouse_3.clicked_name,mouse_11.clicked_name,trials_3.thisRepN,trials_3.thisTrialN,trials_3.thisN,trials_3.thisIndex,trials_3.ran,answer1,rt1,answer2,rt2,answer3,rt3,answer4,rt4,answer5,rt5,answer6,rt6,answer7,rt7
space,1.715865,space,2.478165,space,9.681045,33.5,3.35,405.9701493,229.2537313,1360,space,17.60498,space,14.77087,67,space,13.048935,space,7.243455,space,3.50412,space,3.81192,space,7.785525,space,6.75998,space,15.40164,space,16.230475,space,24.17975,return,4.999595,-93.84,793.0733706,0,0,0,0,1,5fd200f17bdf7823f5b3d5e8,5ff3a3cf4e54095081c164d4,2021-01-05_00h25.14.082,Colour_Similarity_Experiment_v1,2020.1.2,Win32,60,5ff3a352adaa099f7659f8cc,,,,,,,,,,,,,,,,,,,,,,,,,,,,,,,,,,,,,,,,,,,,,,,,,,,,,,,,,,,,,,,,,,,,,,,,,,,,,,,,,,,,,,,,,,,,,,,,,,,,,,,,,,,,,,,
,,,,,,,,,,,,,,,,,,,,,,,,,,,,,,,,,,return,4.883035,-79.56,775.3179966,1,0,1,0,1,5fd200f17bdf7823f5b3d5e8,5ff3a3cf4e54095081c164d4,2021-01-05_00h25.14.082,Colour_Similarity_Experiment_v1,2020.1.2,Win32,60,5ff3a352adaa099f7659f8cc,,,,,,,,,,,,,,,,,,,,,,,,,,,,,,,,,,,,,,,,,,,,,,,,,,,,,,,,,,,,,,,,,,,,,,,,,,,,,,,,,,,,,,,,,,,,,,,,,,,,,,,,,,,,,,,
,,,,,,,,,,,,,,,,,,,,,,,,,,,,,,,,,,return,4.633385,-55.08,744.8802127,2,0,2,0,1,5fd200f17bdf7823f5b3d5e8,5ff3a3cf4e54095081c164d4,2021-01-05_00h25.14.082,Colour_Similarity_Experiment_v1,2020.1.2,Win32,60,5ff3a352adaa099f7659f8cc,,,,,,,,,,,,,,,,,,,,,,,,,,,,,,,,,,,,,,,,,,,,,,,,,,,,,,,,,,,,,,,,,,,,,,,,,,,,,,,,,,,,,,,,,,,,,,,,,,,,,,,,,,,,,,,
,,,,,,,,,,,,,,,,,,,,,,,,,,,,,,,,,,return,4.766075,-73.44,767.7085506,3,0,3,0,1,5fd200f17bdf7823f5b3d5e8,5ff3a3cf4e54095081c164d4,2021-01-05_00h25.14.082,Colour_Similarity_Experiment_v1,2020.1.2,Win32,60,5ff3a352adaa099f7659f8cc,,,,,,,,,,,,,,,,,,,,,,,,,,,,,,,,,,,,,,,,,,,,,,,,,,,,,,,,,,,,,,,,,,,,,,,,,,,,,,,,,,,,,,,,,,,,,,,,,,,,,,,,,,,,,,,
,,,,,,,,,,,,,,,,,,,,,,,,,,,,,,,,,,return,4.86631,-81.6,777.8544786,4,0,4,0,1,5fd200f17bdf7823f5b3d5e8,5ff3a3cf4e54095081c164d4,2021-01-05_00h25.14.082,Colour_Similarity_Experiment_v1,2020.1.2,Win32,60,5ff3a352adaa099f7659f8cc,,,,,,,,,,,,,,,,,,,,,,,,,,,,,,,,,,,,,,,,,,,,,,,,,,,,,,,,,,,,,,,,,,,,,,,,,,,,,,,,,,,,,,,,,,,,,,,,,,,,,,,,,,,,,,,
,,,,,,,,,,,,,,,,,,,,,,,,,,,,,,,,,,,,,,,,,,,5fd200f17bdf7823f5b3d5e8,5ff3a3cf4e54095081c164d4,2021-01-05_00h25.14.082,Colour_Similarity_Experiment_v1,2020.1.2,Win32,60,5ff3a352adaa099f7659f8cc,78,13.61494577,68.41510252,456.1006835,45.61006835,205.2453076,space,7.8652,space,7.24166,space,9.99782,space,14.67261,space,0.7699,space,7.10541,6,FF,49,-94,1,0,0,response3disk_5,5,4,11.333205,-5,2,1,0,0,rectangle_8,-5,2,1,0,0,4,-5,2,1,0,0,0,0,0,0,1,,,,,,,,,,,,,,,,,,,,,,,,,,,,,,,,,,,,,,,,,,,,,,,,,,,,,,,,,,,,
,,,,,,,,,,,,,,,,,,,,,,,,,,,,,,,,,,,,,,,,,,,5fd200f17bdf7823f5b3d5e8,5ff3a3cf4e54095081c164d4,2021-01-05_00h25.14.082,Colour_Similarity_Experiment_v1,2020.1.2,Win32,60,5ff3a352adaa099f7659f8cc,,,,,,,,,,,,,,,,,,,8,PF,-84,-48,1,0,0,response5disk_5,2,2,4.071525,6,1,1,0,0,rectangle_8,45,-97,1,0,0,4,-11,2,1,0,0,0,1,1,2,1,response3disk_7,4,rectangle_4,,,,,,,,,,,,,,,,,,,,,,,,,,,,,,,,,,,,,,,,,,,,,,,,,,,,,,,,,
,,,,,,,,,,,,,,,,,,,,,,,,,,,,,,,,,,,,,,,,,,,5fd200f17bdf7823f5b3d5e8,5ff3a3cf4e54095081c164d4,2021-01-05_00h25.14.082,Colour_Similarity_Experiment_v1,2020.1.2,Win32,60,5ff3a352adaa099f7659f8cc,,,,,,,,,,,,,,,,,,,9,PF,-48,64,1,0,0,response7disk_5,9,0,3.204615,-9,7,1,0,0,rectangle_8,-9,7,1,0,0,4,-9,7,1,0,0,0,2,2,6,1,,,,,,,,,,,,,,,,,,,,,,,,,,,,,,,,,,,,,,,,,,,,,,,,,,,,,,,,,,,,
,,,,,,,,,,,,,,,,,,,,,,,,,,,,,,,,,,,,,,,,,,,5fd200f17bdf7823f5b3d5e8,5ff3a3cf4e54095081c164d4,2021-01-05_00h25.14.082,Colour_Similarity_Experiment_v1,2020.1.2,Win32,60,5ff3a352adaa099f7659f8cc,,,,,,,,,,,,,,,,,,,2,PF,68,-36,1,0,0,response3disk_5,6,5,2.808025,-4,0,1,0,0,rectangle_8,-4,0,1,0,0,4,-4,0,1,0,0,0,3,3,4,1,,,,,,,,,,,,,,,,,,,,,,,,,,,,,,,,,,,,,,,,,,,,,,,,,,,,,,,,,,,,
,,,,,,,,,,,,,,,,,,,,,,,,,,,,,,,,,,,,,,,,,,,5fd200f17bdf7823f5b3d5e8,5ff3a3cf4e54095081c164d4,2021-01-05_00h25.14.082,Colour_Similarity_Experiment_v1,2020.1.2,Win32,60,5ff3a352adaa099f7659f8cc,,,,,,,,,,,,,,,,,,,6,FF,43,74,1,0,0,response1disk_5,9,7,2.02427,1,3,1,0,0,rectangle_8,45,-81,1,0,0,4,-2,5,1,0,0,0,4,4,3,1,response3disk_7,4,rectangle_4,,,,,,,,,,,,,,,,,,,,,,,,,,,,,,,,,,,,,,,,,,,,,,,,,,,,,,,,,
,,,,,,,,,,,,,,,,,,,,,,,,,,,,,,,,,,,,,,,,,,,5fd200f17bdf7823f5b3d5e8,5ff3a3cf4e54095081c164d4,2021-01-05_00h25.14.082,Colour_Similarity_Experiment_v1,2020.1.2,Win32,60,5ff3a352adaa099f7659f8cc,,,,,,,,,,,,,,,,,,,1,FF,-24,-77,1,0,0,response5disk_5,9,3,2.56721,19,-1,1,0,0,rectangle_8,19,-1,1,0,0,4,19,-1,1,0,0,0,5,5,5,1,,,,,,,,,,,,,,,,,,,,,,,,,,,,,,,,,,,,,,,,,,,,,,,,,,,,,,,,,,,,
,,,,,,,,,,,,,,,,,,,,,,,,,,,,,,,,,,,,,,,,,,,5fd200f17bdf7823f5b3d5e8,5ff3a3cf4e54095081c164d4,2021-01-05_00h25.14.082,Colour_Similarity_Experiment_v1,2020.1.2,Win32,60,5ff3a352adaa099f7659f8cc,,,,,,,,,,,,,,,,,,,8,PF,-41,63,1,0,0,response7disk_5,8,0,1.7289,-8,-9,1,0,0,rectangle_8,-8,-9,1,0,0,4,-8,-9,1,0,0,0,6,6,1,1,,,,,,,,,,,,,,,,,,,,,,,,,,,,,,,,,,,,,,,,,,,,,,,,,,,,,,,,,,,,
,,,,,,,,,,,,,,,,,,,,,,,,,,,,,,,,,,,,,,,,,,,5fd200f17bdf7823f5b3d5e8,5ff3a3cf4e54095081c164d4,2021-01-05_00h25.14.082,Colour_Similarity_Experiment_v1,2020.1.2,Win32,60,5ff3a352adaa099f7659f8cc,,,,,,,,,,,,,,,,,,,,PF,,,,,,,,5,14.77771,,,,,,,,,,,,,,,,,,,,,,,,,,space,3.845885,8,55,-29,1,0,0,response3disk,4,1,22,0,1,0,0,rectangle,22,0,1,0,0,,1,0,0.000795,22,0,1,0,0,0,0,0,78,1,,,,,,,,,,,,,,,,,,,,,
,,,,,,,,,,,,,,,,,,,,,,,,,,,,,,,,,,,,,,,,,,,5fd200f17bdf7823f5b3d5e8,5ff3a3cf4e54095081c164d4,2021-01-05_00h25.14.082,Colour_Similarity_Experiment_v1,2020.1.2,Win32,60,5ff3a352adaa099f7659f8cc,,,,,,,,,,,,,,,,,,,,PF,,,,,,,,0,1.855185,,,,,,,,,,,,,,,,,,,,,,,,,,,,3,-29,65,1,0,0,response7disk,4,2,4,1,1,0,0,rectangle,4,1,1,0,0,,1,0,0.00051,4,1,1,0,0,0,1,1,30,1,,,,,,,,,,,,,,,,,,,,,
,,,,,,,,,,,,,,,,,,,,,,,,,,,,,,,,,,,,,,,,,,,5fd200f17bdf7823f5b3d5e8,5ff3a3cf4e54095081c164d4,2021-01-05_00h25.14.082,Colour_Similarity_Experiment_v1,2020.1.2,Win32,60,5ff3a352adaa099f7659f8cc,,,,,,,,,,,,,,,,,,,,PF,,,,,,,,6,5.254995,,,,,,,,,,,,,,,,,,,,,,,,,,,,7,73,31,1,0,0,response1disk,9,3,-3,6,1,0,0,rectangle,-3,6,1,0,0,,7,0,0.000475,-3,6,1,0,0,0,2,2,10,1,,,,,,,,,,,,,,,,,,,,,
,,,,,,,,,,,,,,,,,,,,,,,,,,,,,,,,,,,,,,,,,,,5fd200f17bdf7823f5b3d5e8,5ff3a3cf4e54095081c164d4,2021-01-05_00h25.14.082,Colour_Similarity_Experiment_v1,2020.1.2,Win32,60,5ff3a352adaa099f7659f8cc,,,,,,,,,,,,,,,,,,,,FF,,,,,,,,1,3.519005,,,,,,,,,,,,,,,,,,,,,,,,,,,,3,-80,32,1,0,0,response7disk,5,4,-15,-10,1,0,0,rectangle,-15,-10,1,0,0,,2,0,0.00045,-15,-10,1,0,0,0,3,3,101,1,,,,,,,,,,,,,,,,,,,,,
,,,,,,,,,,,,,,,,,,,,,,,,,,,,,,,,,,,,,,,,,,,5fd200f17bdf7823f5b3d5e8,5ff3a3cf4e54095081c164d4,2021-01-05_00h25.14.082,Colour_Similarity_Experiment_v1,2020.1.2,Win32,60,5ff3a352adaa099f7659f8cc,,,,,,,,,,,,,,,,,,,,FF,,,,,,,,0,1.872395,,,,,,,,,,,,,,,,,,,,,,,,,,,,2,-36,74,1,0,0,response7disk,2,5,-7,0,1,0,0,rectangle,-7,0,1,0,0,,3,0,0.000475,-7,0,1,0,0,0,4,4,142,1,,,,,,,,,,,,,,,,,,,,,
,,,,,,,,,,,,,,,,,,,,,,,,,,,,,,,,,,,,,,,,,,,5fd200f17bdf7823f5b3d5e8,5ff3a3cf4e54095081c164d4,2021-01-05_00h25.14.082,Colour_Similarity_Experiment_v1,2020.1.2,Win32,60,5ff3a352adaa099f7659f8cc,,,,,,,,,,,,,,,,,,,,FF,,,,,,,,1,4.014845,,,,,,,,,,,,,,,,,,,,,,,,,,,,4,-71,29,1,0,0,response7disk,5,6,9,5,1,0,0,rectangle,9,5,1,0,0,,4,0,0.000495,9,5,1,0,0,0,5,5,116,1,,,,,,,,,,,,,,,,,,,,,
,,,,,,,,,,,,,,,,,,,,,,,,,,,,,,,,,,,,,,,,,,,5fd200f17bdf7823f5b3d5e8,5ff3a3cf4e54095081c164d4,2021-01-05_00h25.14.082,Colour_Similarity_Experiment_v1,2020.1.2,Win32,60,5ff3a352adaa099f7659f8cc,,,,,,,,,,,,,,,,,,,,PF,,,,,,,,7,2.537215,,,,,,,,,,,,,,,,,,,,,,,,,,,,3,27,71,1,0,0,response1disk,7,7,9,2,1,0,0,rectangle,9,2,1,0,0,,4,0,0.00058,9,2,1,0,0,0,6,6,41,1,,,,,,,,,,,,,,,,,,,,,
,,,,,,,,,,,,,,,,,,,,,,,,,,,,,,,,,,,,,,,,,,,5fd200f17bdf7823f5b3d5e8,5ff3a3cf4e54095081c164d4,2021-01-05_00h25.14.082,Colour_Similarity_Experiment_v1,2020.1.2,Win32,60,5ff3a352adaa099f7659f8cc,,,,,,,,,,,,,,,,,,,,FF,,,,,,,,1,2.223505,,,,,,,,,,,,,,,,,,,,,,,,,,,,8,-82,34,1,0,0,response7disk,8,8,9,-12,1,0,0,rectangle,9,-12,1,0,0,,0,0,0.000625,9,-12,1,0,0,0,7,7,48,1,,,,,,,,,,,,,,,,,,,,,
,,,,,,,,,,,,,,,,,,,,,,,,,,,,,,,,,,,,,,,,,,,5fd200f17bdf7823f5b3d5e8,5ff3a3cf4e54095081c164d4,2021-01-05_00h25.14.082,Colour_Similarity_Experiment_v1,2020.1.2,Win32,60,5ff3a352adaa099f7659f8cc,,,,,,,,,,,,,,,,,,,,PF,,,,,,,,6,1.65103,,,,,,,,,,,,,,,,,,,,,,,,,,,,6,75,38,1,0,0,response1disk,9,9,10,6,1,0,0,rectangle,10,6,1,0,0,,6,0,0.00045,10,6,1,0,0,0,8,8,45,1,,,,,,,,,,,,,,,,,,,,,
,,,,,,,,,,,,,,,,,,,,,,,,,,,,,,,,,,,,,,,,,,,5fd200f17bdf7823f5b3d5e8,5ff3a3cf4e54095081c164d4,2021-01-05_00h25.14.082,Colour_Similarity_Experiment_v1,2020.1.2,Win32,60,5ff3a352adaa099f7659f8cc,,,,,,,,,,,,,,,,,,,,PF,,,,,,,,6,2.680835,,,,,,,,,,,,,,,,,,,,,,,,,,,,3,64,28,1,0,0,response1disk,2,10,22,8,1,0,0,rectangle,-64,32,1,0,0,1,1,1,8.663225,-3,-1,1,0,0,0,9,9,36,1,response7disk_3,rectangle,,,,,,,,,,,,,,,,,,,
,,,,,,,,,,,,,,,,,,,,,,,,,,,,,,,,,,,,,,,,,,,5fd200f17bdf7823f5b3d5e8,5ff3a3cf4e54095081c164d4,2021-01-05_00h25.14.082,Colour_Similarity_Experiment_v1,2020.1.2,Win32,60,5ff3a352adaa099f7659f8cc,,,,,,,,,,,,,,,,,,,,PF,,,,,,,,0,2.180985,,,,,,,,,,,,,,,,,,,,,,,,,,,,5,-47,72,1,0,0,response7disk,5,11,-16,-1,1,0,0,rectangle,-16,-1,1,0,0,1,1,0,0.00057,-16,-1,1,0,0,0,10,10,94,1,,,,,,,,,,,,,,,,,,,,,
,,,,,,,,,,,,,,,,,,,,,,,,,,,,,,,,,,,,,,,,,,,5fd200f17bdf7823f5b3d5e8,5ff3a3cf4e54095081c164d4,2021-01-05_00h25.14.082,Colour_Similarity_Experiment_v1,2020.1.2,Win32,60,5ff3a352adaa099f7659f8cc,,,,,,,,,,,,,,,,,,,,PF,,,,,,,,3,3.781045,,,,,,,,,,,,,,,,,,,,,,,,,,,,9,-32,-65,1,0,0,response5disk,1,12,-7,1,1,0,0,rectangle,-7,1,1,0,0,1,5,0,0.000475,-7,1,1,0,0,0,11,11,74,1,,,,,,,,,,,,,,,,,,,,,
,,,,,,,,,,,,,,,,,,,,,,,,,,,,,,,,,,,,,,,,,,,5fd200f17bdf7823f5b3d5e8,5ff3a3cf4e54095081c164d4,2021-01-05_00h25.14.082,Colour_Similarity_Experiment_v1,2020.1.2,Win32,60,5ff3a352adaa099f7659f8cc,,,,,,,,,,,,,,,,,,,,FF,,,,,,,,5,4.173315,,,,,,,,,,,,,,,,,,,,,,,,,,,,6,68,-50,1,0,0,response3disk,8,13,4,-7,1,0,0,rectangle,4,-7,1,0,0,1,1,0,0.00045,4,-7,1,0,0,0,12,12,133,1,,,,,,,,,,,,,,,,,,,,,
,,,,,,,,,,,,,,,,,,,,,,,,,,,,,,,,,,,,,,,,,,,5fd200f17bdf7823f5b3d5e8,5ff3a3cf4e54095081c164d4,2021-01-05_00h25.14.082,Colour_Similarity_Experiment_v1,2020.1.2,Win32,60,5ff3a352adaa099f7659f8cc,,,,,,,,,,,,,,,,,,,,FF,,,,,,,,6,1.979375,,,,,,,,,,,,,,,,,,,,,,,,,,,,8,58,32,1,0,0,response1disk,6,14,4,3,1,0,0,rectangle,4,3,1,0,0,1,2,0,0.00058,4,3,1,0,0,0,13,13,37,1,,,,,,,,,,,,,,,,,,,,,
,,,,,,,,,,,,,,,,,,,,,,,,,,,,,,,,,,,,,,,,,,,5fd200f17bdf7823f5b3d5e8,5ff3a3cf4e54095081c164d4,2021-01-05_00h25.14.082,Colour_Similarity_Experiment_v1,2020.1.2,Win32,60,5ff3a352adaa099f7659f8cc,,,,,,,,,,,,,,,,,,,,PF,,,,,,,,7,1.89635,,,,,,,,,,,,,,,,,,,,,,,,,,,,2,45,83,1,0,0,response1disk,7,15,-3,0,1,0,0,rectangle,-3,0,1,0,0,1,4,0,0.00051,-3,0,1,0,0,0,14,14,107,1,,,,,,,,,,,,,,,,,,,,,
,,,,,,,,,,,,,,,,,,,,,,,,,,,,,,,,,,,,,,,,,,,5fd200f17bdf7823f5b3d5e8,5ff3a3cf4e54095081c164d4,2021-01-05_00h25.14.082,Colour_Similarity_Experiment_v1,2020.1.2,Win32,60,5ff3a352adaa099f7659f8cc,,,,,,,,,,,,,,,,,,,,FF,,,,,,,,0,1.131125,,,,,,,,,,,,,,,,,,,,,,,,,,,,3,-36,68,1,0,0,response7disk,3,16,-4,4,1,0,0,rectangle,-4,4,1,0,0,1,2,0,0.00052,-4,4,1,0,0,0,15,15,68,1,,,,,,,,,,,,,,,,,,,,,
,,,,,,,,,,,,,,,,,,,,,,,,,,,,,,,,,,,,,,,,,,,5fd200f17bdf7823f5b3d5e8,5ff3a3cf4e54095081c164d4,2021-01-05_00h25.14.082,Colour_Similarity_Experiment_v1,2020.1.2,Win32,60,5ff3a352adaa099f7659f8cc,,,,,,,,,,,,,,,,,,,,PF,,,,,,,,2,2.86416,,,,,,,,,,,,,,,,,,,,,,,,,,,,4,-75,-37,1,0,0,response5disk,3,17,-17,-2,1,0,0,rectangle,-17,-2,1,0,0,1,5,0,0.000445,-17,-2,1,0,0,0,16,16,89,1,,,,,,,,,,,,,,,,,,,,,
,,,,,,,,,,,,,,,,,,,,,,,,,,,,,,,,,,,,,,,,,,,5fd200f17bdf7823f5b3d5e8,5ff3a3cf4e54095081c164d4,2021-01-05_00h25.14.082,Colour_Similarity_Experiment_v1,2020.1.2,Win32,60,5ff3a352adaa099f7659f8cc,,,,,,,,,,,,,,,,,,,,FF,,,,,,,,5,2.04524,,,,,,,,,,,,,,,,,,,,,,,,,,,,7,61,-37,1,0,0,response3disk,5,18,-9,5,1,0,0,rectangle,-9,5,1,0,0,1,6,0,0.000495,-9,5,1,0,0,0,17,17,156,1,,,,,,,,,,,,,,,,,,,,,
,,,,,,,,,,,,,,,,,,,,,,,,,,,,,,,,,,,,,,,,,,,5fd200f17bdf7823f5b3d5e8,5ff3a3cf4e54095081c164d4,2021-01-05_00h25.14.082,Colour_Similarity_Experiment_v1,2020.1.2,Win32,60,5ff3a352adaa099f7659f8cc,,,,,,,,,,,,,,,,,,,,PF,,,,,,,,4,1.58546,,,,,,,,,,,,,,,,,,,,,,,,,,,,4,39,-67,1,0,0,response3disk,7,19,7,-1,1,0,0,rectangle,7,-1,1,0,0,1,2,0,0.000455,7,-1,1,0,0,0,18,18,38,1,,,,,,,,,,,,,,,,,,,,,
,,,,,,,,,,,,,,,,,,,,,,,,,,,,,,,,,,,,,,,,,,,5fd200f17bdf7823f5b3d5e8,5ff3a3cf4e54095081c164d4,2021-01-05_00h25.14.082,Colour_Similarity_Experiment_v1,2020.1.2,Win32,60,5ff3a352adaa099f7659f8cc,,,,,,,,,,,,,,,,,,,,PF,,,,,,,,3,2.48371,,,,,,,,,,,,,,,,,,,,,,,,,,,,2,-26,-86,1,0,0,response5disk,1,20,-2,-2,1,0,0,rectangle,-2,-2,1,0,0,1,3,0,0.00043,-2,-2,1,0,0,0,19,19,9,1,,,,,,,,,,,,,,,,,,,,,
,,,,,,,,,,,,,,,,,,,,,,,,,,,,,,,,,,,,,,,,,,,5fd200f17bdf7823f5b3d5e8,5ff3a3cf4e54095081c164d4,2021-01-05_00h25.14.082,Colour_Similarity_Experiment_v1,2020.1.2,Win32,60,5ff3a352adaa099f7659f8cc,,,,,,,,,,,,,,,,,,,,FF,,,,,,,,3,1.159845,,,,,,,,,,,,,,,,,,,,,,,,,,,,8,-32,-66,1,0,0,response5disk,9,21,-8,-4,1,0,0,rectangle,-8,-4,1,0,0,1,4,0,0.00056,-8,-4,1,0,0,0,20,20,105,1,,,,,,,,,,,,,,,,,,,,,
,,,,,,,,,,,,,,,,,,,,,,,,,,,,,,,,,,,,,,,,,,,5fd200f17bdf7823f5b3d5e8,5ff3a3cf4e54095081c164d4,2021-01-05_00h25.14.082,Colour_Similarity_Experiment_v1,2020.1.2,Win32,60,5ff3a352adaa099f7659f8cc,,,,,,,,,,,,,,,,,,,,FF,,,,,,,,6,1.94931,,,,,,,,,,,,,,,,,,,,,,,,,,,,4,67,17,1,0,0,response1disk,8,22,14,-4,1,0,0,rectangle,14,-4,1,0,0,1,2,0,0.00057,14,-4,1,0,0,0,21,21,35,1,,,,,,,,,,,,,,,,,,,,,
,,,,,,,,,,,,,,,,,,,,,,,,,,,,,,,,,,,,,,,,,,,5fd200f17bdf7823f5b3d5e8,5ff3a3cf4e54095081c164d4,2021-01-05_00h25.14.082,Colour_Similarity_Experiment_v1,2020.1.2,Win32,60,5ff3a352adaa099f7659f8cc,,,,,,,,,,,,,,,,,,,,PF,,,,,,,,4,4.86228,,,,,,,,,,,,,,,,,,,,,,,,,,,,8,31,-60,1,0,0,response3disk,1,23,10,-3,1,0,0,rectangle,10,-3,1,0,0,1,1,0,0.00064,10,-3,1,0,0,0,22,22,57,1,,,,,,,,,,,,,,,,,,,,,
,,,,,,,,,,,,,,,,,,,,,,,,,,,,,,,,,,,,,,,,,,,5fd200f17bdf7823f5b3d5e8,5ff3a3cf4e54095081c164d4,2021-01-05_00h25.14.082,Colour_Similarity_Experiment_v1,2020.1.2,Win32,60,5ff3a352adaa099f7659f8cc,,,,,,,,,,,,,,,,,,,,FF,,,,,,,,7,3.0935,,,,,,,,,,,,,,,,,,,,,,,,,,,,8,36,75,1,0,0,response1disk,4,24,20,3,1,0,0,rectangle,20,3,1,0,0,1,3,0,0.000495,20,3,1,0,0,0,23,23,88,1,,,,,,,,,,,,,,,,,,,,,
,,,,,,,,,,,,,,,,,,,,,,,,,,,,,,,,,,,,,,,,,,,5fd200f17bdf7823f5b3d5e8,5ff3a3cf4e54095081c164d4,2021-01-05_00h25.14.082,Colour_Similarity_Experiment_v1,2020.1.2,Win32,60,5ff3a352adaa099f7659f8cc,,,,,,,,,,,,,,,,,,,,FF,,,,,,,,4,1.75397,,,,,,,,,,,,,,,,,,,,,,,,,,,,3,37,-73,1,0,0,response3disk,6,25,19,-7,1,0,0,rectangle,19,-7,1,0,0,1,5,0,0.00067,19,-7,1,0,0,0,24,24,95,1,,,,,,,,,,,,,,,,,,,,,
,,,,,,,,,,,,,,,,,,,,,,,,,,,,,,,,,,,,,,,,,,,5fd200f17bdf7823f5b3d5e8,5ff3a3cf4e54095081c164d4,2021-01-05_00h25.14.082,Colour_Similarity_Experiment_v1,2020.1.2,Win32,60,5ff3a352adaa099f7659f8cc,,,,,,,,,,,,,,,,,,,,FF,,,,,,,,4,1.142815,,,,,,,,,,,,,,,,,,,,,,,,,,,,4,29,-54,1,0,0,response3disk,6,26,15,-4,1,0,0,rectangle,15,-4,1,0,0,1,1,0,0.000525,15,-4,1,0,0,0,25,25,122,1,,,,,,,,,,,,,,,,,,,,,
,,,,,,,,,,,,,,,,,,,,,,,,,,,,,,,,,,,,,,,,,,,5fd200f17bdf7823f5b3d5e8,5ff3a3cf4e54095081c164d4,2021-01-05_00h25.14.082,Colour_Similarity_Experiment_v1,2020.1.2,Win32,60,5ff3a352adaa099f7659f8cc,,,,,,,,,,,,,,,,,,,,PF,,,,,,,,2,1.5088,,,,,,,,,,,,,,,,,,,,,,,,,,,,4,-81,-39,1,0,0,response5disk,5,27,-14,-6,1,0,0,rectangle,-14,-6,1,0,0,1,0,0,0.000585,-14,-6,1,0,0,0,26,26,49,1,,,,,,,,,,,,,,,,,,,,,
,,,,,,,,,,,,,,,,,,,,,,,,,,,,,,,,,,,,,,,,,,,5fd200f17bdf7823f5b3d5e8,5ff3a3cf4e54095081c164d4,2021-01-05_00h25.14.082,Colour_Similarity_Experiment_v1,2020.1.2,Win32,60,5ff3a352adaa099f7659f8cc,,,,,,,,,,,,,,,,,,,,FF,,,,,,,,4,2.981645,,,,,,,,,,,,,,,,,,,,,,,,,,,,2,56,-90,1,0,0,response3disk,4,28,13,-8,1,0,0,rectangle,13,-8,1,0,0,1,5,0,0.00045,13,-8,1,0,0,0,27,27,145,1,,,,,,,,,,,,,,,,,,,,,
,,,,,,,,,,,,,,,,,,,,,,,,,,,,,,,,,,,,,,,,,,,5fd200f17bdf7823f5b3d5e8,5ff3a3cf4e54095081c164d4,2021-01-05_00h25.14.082,Colour_Similarity_Experiment_v1,2020.1.2,Win32,60,5ff3a352adaa099f7659f8cc,,,,,,,,,,,,,,,,,,,,FF,,,,,,,,5,2.05364,,,,,,,,,,,,,,,,,,,,,,,,,,,,5,81,-58,1,0,0,response3disk,6,29,-10,8,1,0,0,rectangle,-10,8,1,0,0,1,4,0,0.000525,-10,8,1,0,0,0,28,28,12,1,,,,,,,,,,,,,,,,,,,,,
,,,,,,,,,,,,,,,,,,,,,,,,,,,,,,,,,,,,,,,,,,,5fd200f17bdf7823f5b3d5e8,5ff3a3cf4e54095081c164d4,2021-01-05_00h25.14.082,Colour_Similarity_Experiment_v1,2020.1.2,Win32,60,5ff3a352adaa099f7659f8cc,,,,,,,,,,,,,,,,,,,,PF,,,,,,,,2,1.88775,,,,,,,,,,,,,,,,,,,,,,,,,,,,6,-65,-43,1,0,0,response5disk,7,30,8,-5,1,0,0,rectangle,8,-5,1,0,0,1,6,0,0.00075,8,-5,1,0,0,0,29,29,50,1,,,,,,,,,,,,,,,,,,,,,
,,,,,,,,,,,,,,,,,,,,,,,,,,,,,,,,,,,,,,,,,,,5fd200f17bdf7823f5b3d5e8,5ff3a3cf4e54095081c164d4,2021-01-05_00h25.14.082,Colour_Similarity_Experiment_v1,2020.1.2,Win32,60,5ff3a352adaa099f7659f8cc,,,,,,,,,,,,,,,,,,,,FF,,,,,,,,4,2.075605,,,,,,,,,,,,,,,,,,,,,,,,,,,,4,28,-80,1,0,0,response3disk,3,31,0,3,1,0,0,rectangle,0,3,1,0,0,1,2,0,0.000485,0,3,1,0,0,0,30,30,77,1,,,,,,,,,,,,,,,,,,,,,
,,,,,,,,,,,,,,,,,,,,,,,,,,,,,,,,,,,,,,,,,,,5fd200f17bdf7823f5b3d5e8,5ff3a3cf4e54095081c164d4,2021-01-05_00h25.14.082,Colour_Similarity_Experiment_v1,2020.1.2,Win32,60,5ff3a352adaa099f7659f8cc,,,,,,,,,,,,,,,,,,,,FF,,,,,,,,5,6.73393,,,,,,,,,,,,,,,,,,,,,,,,,,,,9,99,-42,1,0,0,response3disk,1,32,10,-5,1,0,0,rectangle,10,-5,1,0,0,1,7,0,0.00051,10,-5,1,0,0,0,31,31,111,1,,,,,,,,,,,,,,,,,,,,,
,,,,,,,,,,,,,,,,,,,,,,,,,,,,,,,,,,,,,,,,,,,5fd200f17bdf7823f5b3d5e8,5ff3a3cf4e54095081c164d4,2021-01-05_00h25.14.082,Colour_Similarity_Experiment_v1,2020.1.2,Win32,60,5ff3a352adaa099f7659f8cc,,,,,,,,,,,,,,,,,,,,FF,,,,,,,,2,2.07466,,,,,,,,,,,,,,,,,,,,,,,,,,,,6,-63,-42,1,0,0,response5disk,2,33,9,-3,1,0,0,rectangle,9,-3,1,0,0,1,2,0,0.000465,9,-3,1,0,0,0,32,32,112,1,,,,,,,,,,,,,,,,,,,,,
,,,,,,,,,,,,,,,,,,,,,,,,,,,,,,,,,,,,,,,,,,,5fd200f17bdf7823f5b3d5e8,5ff3a3cf4e54095081c164d4,2021-01-05_00h25.14.082,Colour_Similarity_Experiment_v1,2020.1.2,Win32,60,5ff3a352adaa099f7659f8cc,,,,,,,,,,,,,,,,,,,,PF,,,,,,,,6,3.410955,,,,,,,,,,,,,,,,,,,,,,,,,,,,1,70,51,1,0,0,response1disk,3,34,11,0,1,0,0,rectangle,11,0,1,0,0,1,2,0,0.00046,11,0,1,0,0,0,33,33,1,1,,,,,,,,,,,,,,,,,,,,,
,,,,,,,,,,,,,,,,,,,,,,,,,,,,,,,,,,,,,,,,,,,5fd200f17bdf7823f5b3d5e8,5ff3a3cf4e54095081c164d4,2021-01-05_00h25.14.082,Colour_Similarity_Experiment_v1,2020.1.2,Win32,60,5ff3a352adaa099f7659f8cc,,,,,,,,,,,,,,,,,,,,FF,,,,,,,,6,2.06792,,,,,,,,,,,,,,,,,,,,,,,,,,,,5,82,55,1,0,0,response1disk,8,35,22,6,1,0,0,rectangle,22,6,1,0,0,1,6,0,0.000955,22,6,1,0,0,0,34,34,16,1,,,,,,,,,,,,,,,,,,,,,
,,,,,,,,,,,,,,,,,,,,,,,,,,,,,,,,,,,,,,,,,,,5fd200f17bdf7823f5b3d5e8,5ff3a3cf4e54095081c164d4,2021-01-05_00h25.14.082,Colour_Similarity_Experiment_v1,2020.1.2,Win32,60,5ff3a352adaa099f7659f8cc,,,,,,,,,,,,,,,,,,,,PF,,,,,,,,6,1.04578,,,,,,,,,,,,,,,,,,,,,,,,,,,,5,65,30,1,0,0,response1disk,1,36,16,7,1,0,0,rectangle,-65,29,1,0,0,1,1,1,2.01383,-5,-4,1,0,0,0,35,35,159,1,response7disk_3,rectangle,,,,,,,,,,,,,,,,,,,
,,,,,,,,,,,,,,,,,,,,,,,,,,,,,,,,,,,,,,,,,,,5fd200f17bdf7823f5b3d5e8,5ff3a3cf4e54095081c164d4,2021-01-05_00h25.14.082,Colour_Similarity_Experiment_v1,2020.1.2,Win32,60,5ff3a352adaa099f7659f8cc,,,,,,,,,,,,,,,,,,,,FF,,,,,,,,5,1.31916,,,,,,,,,,,,,,,,,,,,,,,,,,,,9,68,-30,1,0,0,response3disk,7,37,7,3,1,0,0,rectangle,7,3,1,0,0,1,7,0,0.000555,7,3,1,0,0,0,36,36,100,1,,,,,,,,,,,,,,,,,,,,,
,,,,,,,,,,,,,,,,,,,,,,,,,,,,,,,,,,,,,,,,,,,5fd200f17bdf7823f5b3d5e8,5ff3a3cf4e54095081c164d4,2021-01-05_00h25.14.082,Colour_Similarity_Experiment_v1,2020.1.2,Win32,60,5ff3a352adaa099f7659f8cc,,,,,,,,,,,,,,,,,,,,FF,,,,,,,,0,1.26018,,,,,,,,,,,,,,,,,,,,,,,,,,,,1,-36,79,1,0,0,response7disk,1,38,22,5,1,0,0,rectangle,22,5,1,0,0,1,6,0,0.000675,22,5,1,0,0,0,37,37,151,1,,,,,,,,,,,,,,,,,,,,,
,,,,,,,,,,,,,,,,,,,,,,,,,,,,,,,,,,,,,,,,,,,5fd200f17bdf7823f5b3d5e8,5ff3a3cf4e54095081c164d4,2021-01-05_00h25.14.082,Colour_Similarity_Experiment_v1,2020.1.2,Win32,60,5ff3a352adaa099f7659f8cc,,,,,,,,,,,,,,,,,,,,FF,,,,,,,,5,2.09276,,,,,,,,,,,,,,,,,,,,,,,,,,,,3,68,-43,1,0,0,response3disk,7,39,-12,2,1,0,0,rectangle,-12,2,1,0,0,1,5,0,0.00063,-12,2,1,0,0,0,38,38,118,1,,,,,,,,,,,,,,,,,,,,,
,,,,,,,,,,,,,,,,,,,,,,,,,,,,,,,,,,,,,,,,,,,5fd200f17bdf7823f5b3d5e8,5ff3a3cf4e54095081c164d4,2021-01-05_00h25.14.082,Colour_Similarity_Experiment_v1,2020.1.2,Win32,60,5ff3a352adaa099f7659f8cc,,,,,,,,,,,,,,,,,,,,FF,,,,,,,,3,1.178645,,,,,,,,,,,,,,,,,,,,,,,,,,,,2,-32,-73,1,0,0,response5disk,9,40,-14,-3,1,0,0,rectangle,-14,-3,1,0,0,1,3,0,0.00065,-14,-3,1,0,0,0,39,39,72,1,,,,,,,,,,,,,,,,,,,,,
,,,,,,,,,,,,,,,,,,,,,,,,,,,,,,,,,,,,,,,,,,,5fd200f17bdf7823f5b3d5e8,5ff3a3cf4e54095081c164d4,2021-01-05_00h25.14.082,Colour_Similarity_Experiment_v1,2020.1.2,Win32,60,5ff3a352adaa099f7659f8cc,,,,,,,,,,,,,,,,,,,,PF,,,,,,,,6,1.25389,,,,,,,,,,,,,,,,,,,,,,,,,,,,2,96,32,1,0,0,response1disk,6,41,9,-2,1,0,0,rectangle,9,-2,1,0,0,1,5,0,0.000435,9,-2,1,0,0,0,40,40,113,1,,,,,,,,,,,,,,,,,,,,,
,,,,,,,,,,,,,,,,,,,,,,,,,,,,,,,,,,,,,,,,,,,5fd200f17bdf7823f5b3d5e8,5ff3a3cf4e54095081c164d4,2021-01-05_00h25.14.082,Colour_Similarity_Experiment_v1,2020.1.2,Win32,60,5ff3a352adaa099f7659f8cc,,,,,,,,,,,,,,,,,,,,FF,,,,,,,,1,1.772525,,,,,,,,,,,,,,,,,,,,,,,,,,,,6,-69,26,1,0,0,response7disk,7,42,-22,3,1,0,0,rectangle,-22,3,1,0,0,1,5,0,0.000455,-22,3,1,0,0,0,41,41,18,1,,,,,,,,,,,,,,,,,,,,,
,,,,,,,,,,,,,,,,,,,,,,,,,,,,,,,,,,,,,,,,,,,5fd200f17bdf7823f5b3d5e8,5ff3a3cf4e54095081c164d4,2021-01-05_00h25.14.082,Colour_Similarity_Experiment_v1,2020.1.2,Win32,60,5ff3a352adaa099f7659f8cc,,,,,,,,,,,,,,,,,,,,FF,,,,,,,,4,5.07772,,,,,,,,,,,,,,,,,,,,,,,,,,,,1,50,-53,1,0,0,response3disk,4,43,-4,0,1,0,0,rectangle,-4,0,1,0,0,1,0,0,0.00067,-4,0,1,0,0,0,42,42,135,1,,,,,,,,,,,,,,,,,,,,,
,,,,,,,,,,,,,,,,,,,,,,,,,,,,,,,,,,,,,,,,,,,5fd200f17bdf7823f5b3d5e8,5ff3a3cf4e54095081c164d4,2021-01-05_00h25.14.082,Colour_Similarity_Experiment_v1,2020.1.2,Win32,60,5ff3a352adaa099f7659f8cc,,,,,,,,,,,,,,,,,,,,PF,,,,,,,,4,1.884525,,,,,,,,,,,,,,,,,,,,,,,,,,,,4,42,-63,1,0,0,response3disk,2,44,-24,0,1,0,0,rectangle,-24,0,1,0,0,1,6,0,0.00047,-24,0,1,0,0,0,43,43,108,1,,,,,,,,,,,,,,,,,,,,,
,,,,,,,,,,,,,,,,,,,,,,,,,,,,,,,,,,,,,,,,,,,5fd200f17bdf7823f5b3d5e8,5ff3a3cf4e54095081c164d4,2021-01-05_00h25.14.082,Colour_Similarity_Experiment_v1,2020.1.2,Win32,60,5ff3a352adaa099f7659f8cc,,,,,,,,,,,,,,,,,,,,FF,,,,,,,,4,0.897735,,,,,,,,,,,,,,,,,,,,,,,,,,,,4,36,-78,1,0,0,response3disk,2,45,4,-1,1,0,0,rectangle,4,-1,1,0,0,1,2,0,0.0005,4,-1,1,0,0,0,44,44,13,1,,,,,,,,,,,,,,,,,,,,,
,,,,,,,,,,,,,,,,,,,,,,,,,,,,,,,,,,,,,,,,,,,5fd200f17bdf7823f5b3d5e8,5ff3a3cf4e54095081c164d4,2021-01-05_00h25.14.082,Colour_Similarity_Experiment_v1,2020.1.2,Win32,60,5ff3a352adaa099f7659f8cc,,,,,,,,,,,,,,,,,,,,FF,,,,,,,,5,1.266375,,,,,,,,,,,,,,,,,,,,,,,,,,,,3,54,-47,1,0,0,response3disk,8,46,8,-3,1,0,0,rectangle,8,-3,1,0,0,1,4,0,0.00045,8,-3,1,0,0,0,45,45,44,1,,,,,,,,,,,,,,,,,,,,,
,,,,,,,,,,,,,,,,,,,,,,,,,,,,,,,,,,,,,,,,,,,5fd200f17bdf7823f5b3d5e8,5ff3a3cf4e54095081c164d4,2021-01-05_00h25.14.082,Colour_Similarity_Experiment_v1,2020.1.2,Win32,60,5ff3a352adaa099f7659f8cc,,,,,,,,,,,,,,,,,,,,PF,,,,,,,,3,1.27261,,,,,,,,,,,,,,,,,,,,,,,,,,,,5,-48,-74,1,0,0,response5disk,6,47,-5,2,1,0,0,rectangle,-5,2,1,0,0,1,0,0,0.000495,-5,2,1,0,0,0,46,46,103,1,,,,,,,,,,,,,,,,,,,,,
,,,,,,,,,,,,,,,,,,,,,,,,,,,,,,,,,,,,,,,,,,,5fd200f17bdf7823f5b3d5e8,5ff3a3cf4e54095081c164d4,2021-01-05_00h25.14.082,Colour_Similarity_Experiment_v1,2020.1.2,Win32,60,5ff3a352adaa099f7659f8cc,,,,,,,,,,,,,,,,,,,,FF,,,,,,,,5,1.229355,,,,,,,,,,,,,,,,,,,,,,,,,,,,4,66,-41,1,0,0,response3disk,9,48,9,2,1,0,0,rectangle,9,2,1,0,0,1,1,0,0.00157,9,2,1,0,0,0,47,47,90,1,,,,,,,,,,,,,,,,,,,,,
,,,,,,,,,,,,,,,,,,,,,,,,,,,,,,,,,,,,,,,,,,,5fd200f17bdf7823f5b3d5e8,5ff3a3cf4e54095081c164d4,2021-01-05_00h25.14.082,Colour_Similarity_Experiment_v1,2020.1.2,Win32,60,5ff3a352adaa099f7659f8cc,,,,,,,,,,,,,,,,,,,,PF,,,,,,,,5,1.152835,,,,,,,,,,,,,,,,,,,,,,,,,,,,7,64,-33,1,0,0,response3disk,4,49,-10,-3,1,0,0,rectangle,-10,-3,1,0,0,1,4,0,0.000395,-10,-3,1,0,0,0,48,48,43,1,,,,,,,,,,,,,,,,,,,,,
,,,,,,,,,,,,,,,,,,,,,,,,,,,,,,,,,,,,,,,,,,,5fd200f17bdf7823f5b3d5e8,5ff3a3cf4e54095081c164d4,2021-01-05_00h25.14.082,Colour_Similarity_Experiment_v1,2020.1.2,Win32,60,5ff3a352adaa099f7659f8cc,,,,,,,,,,,,,,,,,,,,PF,,,,,,,,6,1.57307,,,,,,,,,,,,,,,,,,,,,,,,,,,,3,52,27,1,0,0,response1disk,1,50,-6,-2,1,0,0,rectangle,-6,-2,1,0,0,1,0,0,0.000415,-6,-2,1,0,0,0,49,49,96,1,,,,,,,,,,,,,,,,,,,,,
,,,,,,,,,,,,,,,,,,,,,,,,,,,,,,,,,,,,,,,,,,,5fd200f17bdf7823f5b3d5e8,5ff3a3cf4e54095081c164d4,2021-01-05_00h25.14.082,Colour_Similarity_Experiment_v1,2020.1.2,Win32,60,5ff3a352adaa099f7659f8cc,,,,,,,,,,,,,,,,,,,,FF,,,,,,,,0,1.23658,,,,,,,,,,,,,,,,,,,,,,,,,,,,9,-46,77,1,0,0,response7disk,9,51,-14,-5,1,0,0,rectangle,-14,-5,1,0,0,1,5,0,0.00051,-14,-5,1,0,0,0,50,50,17,1,,,,,,,,,,,,,,,,,,,,,
,,,,,,,,,,,,,,,,,,,,,,,,,,,,,,,,,,,,,,,,,,,5fd200f17bdf7823f5b3d5e8,5ff3a3cf4e54095081c164d4,2021-01-05_00h25.14.082,Colour_Similarity_Experiment_v1,2020.1.2,Win32,60,5ff3a352adaa099f7659f8cc,,,,,,,,,,,,,,,,,,,,PF,,,,,,,,6,1.728125,,,,,,,,,,,,,,,,,,,,,,,,,,,,5,76,31,1,0,0,response1disk,2,52,10,2,1,0,0,rectangle,10,2,1,0,0,1,5,0,0.00053,10,2,1,0,0,0,51,51,129,1,,,,,,,,,,,,,,,,,,,,,
,,,,,,,,,,,,,,,,,,,,,,,,,,,,,,,,,,,,,,,,,,,5fd200f17bdf7823f5b3d5e8,5ff3a3cf4e54095081c164d4,2021-01-05_00h25.14.082,Colour_Similarity_Experiment_v1,2020.1.2,Win32,60,5ff3a352adaa099f7659f8cc,,,,,,,,,,,,,,,,,,,,PF,,,,,,,,1,1.438575,,,,,,,,,,,,,,,,,,,,,,,,,,,,3,-62,42,1,0,0,response7disk,5,53,10,-12,1,0,0,rectangle,10,-12,1,0,0,1,1,0,0.000475,10,-12,1,0,0,0,52,52,66,1,,,,,,,,,,,,,,,,,,,,,
,,,,,,,,,,,,,,,,,,,,,,,,,,,,,,,,,,,,,,,,,,,5fd200f17bdf7823f5b3d5e8,5ff3a3cf4e54095081c164d4,2021-01-05_00h25.14.082,Colour_Similarity_Experiment_v1,2020.1.2,Win32,60,5ff3a352adaa099f7659f8cc,,,,,,,,,,,,,,,,,,,,FF,,,,,,,,5,2.38268,,,,,,,,,,,,,,,,,,,,,,,,,,,,9,82,-27,1,0,0,response3disk,2,54,6,-6,1,0,0,rectangle,55,29,1,0,0,6,6,1,5.29588,-1,3,1,0,0,0,53,53,11,1,response1disk_3,rectangle,,,,,,,,,,,,,,,,,,,
,,,,,,,,,,,,,,,,,,,,,,,,,,,,,,,,,,,,,,,,,,,5fd200f17bdf7823f5b3d5e8,5ff3a3cf4e54095081c164d4,2021-01-05_00h25.14.082,Colour_Similarity_Experiment_v1,2020.1.2,Win32,60,5ff3a352adaa099f7659f8cc,,,,,,,,,,,,,,,,,,,,FF,,,,,,,,3,1.55445,,,,,,,,,,,,,,,,,,,,,,,,,,,,1,-37,-70,1,0,0,response5disk,9,55,2,2,1,0,0,rectangle,2,2,1,0,0,6,3,0,0.00044,2,2,1,0,0,0,54,54,123,1,,,,,,,,,,,,,,,,,,,,,
,,,,,,,,,,,,,,,,,,,,,,,,,,,,,,,,,,,,,,,,,,,5fd200f17bdf7823f5b3d5e8,5ff3a3cf4e54095081c164d4,2021-01-05_00h25.14.082,Colour_Similarity_Experiment_v1,2020.1.2,Win32,60,5ff3a352adaa099f7659f8cc,,,,,,,,,,,,,,,,,,,,PF,,,,,,,,5,5.74919,,,,,,,,,,,,,,,,,,,,,,,,,,,,6,63,-45,1,0,0,response3disk,1,56,12,-4,1,0,0,rectangle,12,-4,1,0,0,6,4,0,0.000435,12,-4,1,0,0,0,55,55,46,1,,,,,,,,,,,,,,,,,,,,,
,,,,,,,,,,,,,,,,,,,,,,,,,,,,,,,,,,,,,,,,,,,5fd200f17bdf7823f5b3d5e8,5ff3a3cf4e54095081c164d4,2021-01-05_00h25.14.082,Colour_Similarity_Experiment_v1,2020.1.2,Win32,60,5ff3a352adaa099f7659f8cc,,,,,,,,,,,,,,,,,,,,FF,,,,,,,,0,1.28081,,,,,,,,,,,,,,,,,,,,,,,,,,,,4,-32,73,1,0,0,response7disk,4,57,-16,9,1,0,0,rectangle,-16,9,1,0,0,6,4,0,0.000425,-16,9,1,0,0,0,56,56,84,1,,,,,,,,,,,,,,,,,,,,,
,,,,,,,,,,,,,,,,,,,,,,,,,,,,,,,,,,,,,,,,,,,5fd200f17bdf7823f5b3d5e8,5ff3a3cf4e54095081c164d4,2021-01-05_00h25.14.082,Colour_Similarity_Experiment_v1,2020.1.2,Win32,60,5ff3a352adaa099f7659f8cc,,,,,,,,,,,,,,,,,,,,FF,,,,,,,,0,1.045195,,,,,,,,,,,,,,,,,,,,,,,,,,,,7,-42,78,1,0,0,response7disk,7,58,-14,6,1,0,0,rectangle,-14,6,1,0,0,6,7,0,0.000775,-14,6,1,0,0,0,57,57,34,1,,,,,,,,,,,,,,,,,,,,,
,,,,,,,,,,,,,,,,,,,,,,,,,,,,,,,,,,,,,,,,,,,5fd200f17bdf7823f5b3d5e8,5ff3a3cf4e54095081c164d4,2021-01-05_00h25.14.082,Colour_Similarity_Experiment_v1,2020.1.2,Win32,60,5ff3a352adaa099f7659f8cc,,,,,,,,,,,,,,,,,,,,PF,,,,,,,,6,1.446595,,,,,,,,,,,,,,,,,,,,,,,,,,,,4,65,26,1,0,0,response1disk,8,59,7,14,1,0,0,rectangle,7,14,1,0,0,6,1,0,0.000745,7,14,1,0,0,0,58,58,124,1,,,,,,,,,,,,,,,,,,,,,
,,,,,,,,,,,,,,,,,,,,,,,,,,,,,,,,,,,,,,,,,,,5fd200f17bdf7823f5b3d5e8,5ff3a3cf4e54095081c164d4,2021-01-05_00h25.14.082,Colour_Similarity_Experiment_v1,2020.1.2,Win32,60,5ff3a352adaa099f7659f8cc,,,,,,,,,,,,,,,,,,,,PF,,,,,,,,5,1.43357,,,,,,,,,,,,,,,,,,,,,,,,,,,,7,61,-40,1,0,0,response3disk,5,60,-10,2,1,0,0,rectangle,-10,2,1,0,0,6,4,0,0.000435,-10,2,1,0,0,0,59,59,92,1,,,,,,,,,,,,,,,,,,,,,
,,,,,,,,,,,,,,,,,,,,,,,,,,,,,,,,,,,,,,,,,,,5fd200f17bdf7823f5b3d5e8,5ff3a3cf4e54095081c164d4,2021-01-05_00h25.14.082,Colour_Similarity_Experiment_v1,2020.1.2,Win32,60,5ff3a352adaa099f7659f8cc,,,,,,,,,,,,,,,,,,,,FF,,,,,,,,4,1.019155,,,,,,,,,,,,,,,,,,,,,,,,,,,,2,40,-67,1,0,0,response3disk,5,61,9,-6,1,0,0,rectangle,9,-6,1,0,0,6,1,0,0.000725,9,-6,1,0,0,0,60,60,80,1,,,,,,,,,,,,,,,,,,,,,
,,,,,,,,,,,,,,,,,,,,,,,,,,,,,,,,,,,,,,,,,,,5fd200f17bdf7823f5b3d5e8,5ff3a3cf4e54095081c164d4,2021-01-05_00h25.14.082,Colour_Similarity_Experiment_v1,2020.1.2,Win32,60,5ff3a352adaa099f7659f8cc,,,,,,,,,,,,,,,,,,,,PF,,,,,,,,0,1.08679,,,,,,,,,,,,,,,,,,,,,,,,,,,,6,-35,72,1,0,0,response7disk,6,62,-15,9,1,0,0,rectangle,-15,9,1,0,0,6,1,0,0.00041,-15,9,1,0,0,0,61,61,0,1,,,,,,,,,,,,,,,,,,,,,
,,,,,,,,,,,,,,,,,,,,,,,,,,,,,,,,,,,,,,,,,,,5fd200f17bdf7823f5b3d5e8,5ff3a3cf4e54095081c164d4,2021-01-05_00h25.14.082,Colour_Similarity_Experiment_v1,2020.1.2,Win32,60,5ff3a352adaa099f7659f8cc,,,,,,,,,,,,,,,,,,,,PF,,,,,,,,0,1.107525,,,,,,,,,,,,,,,,,,,,,,,,,,,,2,-26,75,1,0,0,response7disk,2,63,-8,-2,1,0,0,rectangle,-8,-2,1,0,0,6,6,0,0.000445,-8,-2,1,0,0,0,62,62,14,1,,,,,,,,,,,,,,,,,,,,,
,,,,,,,,,,,,,,,,,,,,,,,,,,,,,,,,,,,,,,,,,,,5fd200f17bdf7823f5b3d5e8,5ff3a3cf4e54095081c164d4,2021-01-05_00h25.14.082,Colour_Similarity_Experiment_v1,2020.1.2,Win32,60,5ff3a352adaa099f7659f8cc,,,,,,,,,,,,,,,,,,,,PF,,,,,,,,4,1.28705,,,,,,,,,,,,,,,,,,,,,,,,,,,,8,37,-70,1,0,0,response3disk,3,64,-4,-7,1,0,0,rectangle,-4,-7,1,0,0,6,1,0,0.00069,-4,-7,1,0,0,0,63,63,71,1,,,,,,,,,,,,,,,,,,,,,
,,,,,,,,,,,,,,,,,,,,,,,,,,,,,,,,,,,,,,,,,,,5fd200f17bdf7823f5b3d5e8,5ff3a3cf4e54095081c164d4,2021-01-05_00h25.14.082,Colour_Similarity_Experiment_v1,2020.1.2,Win32,60,5ff3a352adaa099f7659f8cc,,,,,,,,,,,,,,,,,,,,FF,,,,,,,,4,1.12549,,,,,,,,,,,,,,,,,,,,,,,,,,,,9,39,-66,1,0,0,response3disk,3,65,22,11,1,0,0,rectangle,22,11,1,0,0,6,1,0,0.00057,22,11,1,0,0,0,64,64,141,1,,,,,,,,,,,,,,,,,,,,,
,,,,,,,,,,,,,,,,,,,,,,,,,,,,,,,,,,,,,,,,,,,5fd200f17bdf7823f5b3d5e8,5ff3a3cf4e54095081c164d4,2021-01-05_00h25.14.082,Colour_Similarity_Experiment_v1,2020.1.2,Win32,60,5ff3a352adaa099f7659f8cc,,,,,,,,,,,,,,,,,,,,FF,,,,,,,,5,1.56973,,,,,,,,,,,,,,,,,,,,,,,,,,,,4,79,-35,1,0,0,response3disk,7,66,-7,0,1,0,0,rectangle,-7,0,1,0,0,6,6,0,0.00043,-7,0,1,0,0,0,65,65,87,1,,,,,,,,,,,,,,,,,,,,,
,,,,,,,,,,,,,,,,,,,,,,,,,,,,,,,,,,,,,,,,,,,5fd200f17bdf7823f5b3d5e8,5ff3a3cf4e54095081c164d4,2021-01-05_00h25.14.082,Colour_Similarity_Experiment_v1,2020.1.2,Win32,60,5ff3a352adaa099f7659f8cc,,,,,,,,,,,,,,,,,,,,FF,,,,,,,,5,1.073745,,,,,,,,,,,,,,,,,,,,,,,,,,,,7,55,-34,1,0,0,response3disk,3,67,10,-9,1,0,0,rectangle,10,-9,1,0,0,6,7,0,0.000485,10,-9,1,0,0,0,66,66,73,1,,,,,,,,,,,,,,,,,,,,,
,,,,,,,,,,,,,,,,,,,,,,,,,,,,,,,,,,,,,,,,,,,5fd200f17bdf7823f5b3d5e8,5ff3a3cf4e54095081c164d4,2021-01-05_00h25.14.082,Colour_Similarity_Experiment_v1,2020.1.2,Win32,60,5ff3a352adaa099f7659f8cc,,,,,,,,,,,,,,,,,,,,PF,,,,,,,,1,1.5937,,,,,,,,,,,,,,,,,,,,,,,,,,,,8,-63,29,1,0,0,response7disk,9,68,1,3,1,0,0,rectangle,1,3,1,0,0,6,4,0,0.00062,1,3,1,0,0,0,67,67,42,1,,,,,,,,,,,,,,,,,,,,,
,,,,,,,,,,,,,,,,,,,,,,,,,,,,,,,,,,,,,,,,,,,5fd200f17bdf7823f5b3d5e8,5ff3a3cf4e54095081c164d4,2021-01-05_00h25.14.082,Colour_Similarity_Experiment_v1,2020.1.2,Win32,60,5ff3a352adaa099f7659f8cc,,,,,,,,,,,,,,,,,,,,PF,,,,,,,,1,1.12686,,,,,,,,,,,,,,,,,,,,,,,,,,,,4,-51,30,1,0,0,response7disk,9,69,-9,-4,1,0,0,rectangle,-9,-4,1,0,0,6,3,0,0.0005,-9,-4,1,0,0,0,68,68,75,1,,,,,,,,,,,,,,,,,,,,,
,,,,,,,,,,,,,,,,,,,,,,,,,,,,,,,,,,,,,,,,,,,5fd200f17bdf7823f5b3d5e8,5ff3a3cf4e54095081c164d4,2021-01-05_00h25.14.082,Colour_Similarity_Experiment_v1,2020.1.2,Win32,60,5ff3a352adaa099f7659f8cc,,,,,,,,,,,,,,,,,,,,FF,,,,,,,,5,1.08903,,,,,,,,,,,,,,,,,,,,,,,,,,,,6,53,-37,1,0,0,response3disk,4,70,-24,-1,1,0,0,rectangle,-24,-1,1,0,0,6,2,0,0.00043,-24,-1,1,0,0,0,69,69,56,1,,,,,,,,,,,,,,,,,,,,,
,,,,,,,,,,,,,,,,,,,,,,,,,,,,,,,,,,,,,,,,,,,5fd200f17bdf7823f5b3d5e8,5ff3a3cf4e54095081c164d4,2021-01-05_00h25.14.082,Colour_Similarity_Experiment_v1,2020.1.2,Win32,60,5ff3a352adaa099f7659f8cc,,,,,,,,,,,,,,,,,,,,PF,,,,,,,,1,1.606635,,,,,,,,,,,,,,,,,,,,,,,,,,,,5,-74,30,1,0,0,response7disk,4,71,-31,-3,1,0,0,rectangle,-31,-3,1,0,0,6,5,0,0.000475,-31,-3,1,0,0,0,70,70,54,1,,,,,,,,,,,,,,,,,,,,,
,,,,,,,,,,,,,,,,,,,,,,,,,,,,,,,,,,,,,,,,,,,5fd200f17bdf7823f5b3d5e8,5ff3a3cf4e54095081c164d4,2021-01-05_00h25.14.082,Colour_Similarity_Experiment_v1,2020.1.2,Win32,60,5ff3a352adaa099f7659f8cc,,,,,,,,,,,,,,,,,,,,FF,,,,,,,,5,3.10973,,,,,,,,,,,,,,,,,,,,,,,,,,,,6,60,-49,1,0,0,response3disk,5,72,-9,-7,1,0,0,rectangle,-9,-7,1,0,0,6,3,0,0.00048,-9,-7,1,0,0,0,71,71,126,1,,,,,,,,,,,,,,,,,,,,,
,,,,,,,,,,,,,,,,,,,,,,,,,,,,,,,,,,,,,,,,,,,5fd200f17bdf7823f5b3d5e8,5ff3a3cf4e54095081c164d4,2021-01-05_00h25.14.082,Colour_Similarity_Experiment_v1,2020.1.2,Win32,60,5ff3a352adaa099f7659f8cc,,,,,,,,,,,,,,,,,,,,PF,,,,,,,,3,1.60001,,,,,,,,,,,,,,,,,,,,,,,,,,,,5,-26,-81,1,0,0,response5disk,7,73,0,-4,1,0,0,rectangle,0,-4,1,0,0,6,2,0,0.00049,0,-4,1,0,0,0,72,72,146,1,,,,,,,,,,,,,,,,,,,,,
,,,,,,,,,,,,,,,,,,,,,,,,,,,,,,,,,,,,,,,,,,,5fd200f17bdf7823f5b3d5e8,5ff3a3cf4e54095081c164d4,2021-01-05_00h25.14.082,Colour_Similarity_Experiment_v1,2020.1.2,Win32,60,5ff3a352adaa099f7659f8cc,,,,,,,,,,,,,,,,,,,,FF,,,,,,,,5,1.94392,,,,,,,,,,,,,,,,,,,,,,,,,,,,1,82,-24,1,0,0,response3disk,3,74,-2,8,1,0,0,rectangle,-2,8,1,0,0,6,6,0,0.000505,-2,8,1,0,0,0,73,73,99,1,,,,,,,,,,,,,,,,,,,,,
,,,,,,,,,,,,,,,,,,,,,,,,,,,,,,,,,,,,,,,,,,,5fd200f17bdf7823f5b3d5e8,5ff3a3cf4e54095081c164d4,2021-01-05_00h25.14.082,Colour_Similarity_Experiment_v1,2020.1.2,Win32,60,5ff3a352adaa099f7659f8cc,,,,,,,,,,,,,,,,,,,,PF,,,,,,,,5,2.22062,,,,,,,,,,,,,,,,,,,,,,,,,,,,4,73,-16,1,0,0,response3disk,1,75,-2,8,1,0,0,rectangle,-2,8,1,0,0,6,2,0,0.00049,-2,8,1,0,0,0,74,74,115,1,,,,,,,,,,,,,,,,,,,,,
,,,,,,,,,,,,,,,,,,,,,,,,,,,,,,,,,,,,,,,,,,,5fd200f17bdf7823f5b3d5e8,5ff3a3cf4e54095081c164d4,2021-01-05_00h25.14.082,Colour_Similarity_Experiment_v1,2020.1.2,Win32,60,5ff3a352adaa099f7659f8cc,,,,,,,,,,,,,,,,,,,,FF,,,,,,,,5,1.458105,,,,,,,,,,,,,,,,,,,,,,,,,,,,4,85,-45,1,0,0,response3disk,1,76,-2,8,1,0,0,rectangle,-2,8,1,0,0,6,5,0,0.000525,-2,8,1,0,0,0,75,75,102,1,,,,,,,,,,,,,,,,,,,,,
,,,,,,,,,,,,,,,,,,,,,,,,,,,,,,,,,,,,,,,,,,,5fd200f17bdf7823f5b3d5e8,5ff3a3cf4e54095081c164d4,2021-01-05_00h25.14.082,Colour_Similarity_Experiment_v1,2020.1.2,Win32,60,5ff3a352adaa099f7659f8cc,,,,,,,,,,,,,,,,,,,,PF,,,,,,,,3,1.434195,,,,,,,,,,,,,,,,,,,,,,,,,,,,7,-32,-63,1,0,0,response5disk,8,77,-14,7,1,0,0,rectangle,-14,7,1,0,0,6,1,0,0.00068,-14,7,1,0,0,0,76,76,140,1,,,,,,,,,,,,,,,,,,,,,
,,,,,,,,,,,,,,,,,,,,,,,,,,,,,,,,,,,,,,,,,,,5fd200f17bdf7823f5b3d5e8,5ff3a3cf4e54095081c164d4,2021-01-05_00h25.14.082,Colour_Similarity_Experiment_v1,2020.1.2,Win32,60,5ff3a352adaa099f7659f8cc,,,,,,,,,,,,,,,,,,,,FF,,,,,,,,5,1.193955,,,,,,,,,,,,,,,,,,,,,,,,,,,,8,70,-27,1,0,0,response3disk,3,78,-20,9,1,0,0,rectangle,-20,9,1,0,0,6,1,0,0.000575,-20,9,1,0,0,0,77,77,154,1,,,,,,,,,,,,,,,,,,,,,
,,,,,,,,,,,,,,,,,,,,,,,,,,,,,,,,,,,,,,,,,,,5fd200f17bdf7823f5b3d5e8,5ff3a3cf4e54095081c164d4,2021-01-05_00h25.14.082,Colour_Similarity_Experiment_v1,2020.1.2,Win32,60,5ff3a352adaa099f7659f8cc,,,,,,,,,,,,,,,,,,,,PF,,,,,,,,6,1.876415,,,,,,,,,,,,,,,,,,,,,,,,,,,,8,59,28,1,0,0,response1disk,7,79,3,-1,1,0,0,rectangle,3,-1,1,0,0,6,3,0,0.000465,3,-1,1,0,0,0,78,78,23,1,,,,,,,,,,,,,,,,,,,,,
,,,,,,,,,,,,,,,,,,,,,,,,,,,,,,,,,,,,,,,,,,,5fd200f17bdf7823f5b3d5e8,5ff3a3cf4e54095081c164d4,2021-01-05_00h25.14.082,Colour_Similarity_Experiment_v1,2020.1.2,Win32,60,5ff3a352adaa099f7659f8cc,,,,,,,,,,,,,,,,,,,,PF,,,,,,,,6,1.11266,,,,,,,,,,,,,,,,,,,,,,,,,,,,6,73,25,1,0,0,response1disk,4,80,20,-3,1,0,0,rectangle,20,-3,1,0,0,6,0,0,0.0005,20,-3,1,0,0,0,79,79,33,1,,,,,,,,,,,,,,,,,,,,,
,,,,,,,,,,,,,,,,,,,,,,,,,,,,,,,,,,,,,,,,,,,5fd200f17bdf7823f5b3d5e8,5ff3a3cf4e54095081c164d4,2021-01-05_00h25.14.082,Colour_Similarity_Experiment_v1,2020.1.2,Win32,60,5ff3a352adaa099f7659f8cc,,,,,,,,,,,,,,,,,,,,PF,,,,,,,,6,0.92764,,,,,,,,,,,,,,,,,,,,,,,,,,,,2,55,32,1,0,0,response1disk,4,81,-2,0,1,0,0,rectangle,-2,0,1,0,0,6,2,0,0.000505,-2,0,1,0,0,0,80,80,127,1,,,,,,,,,,,,,,,,,,,,,
,,,,,,,,,,,,,,,,,,,,,,,,,,,,,,,,,,,,,,,,,,,5fd200f17bdf7823f5b3d5e8,5ff3a3cf4e54095081c164d4,2021-01-05_00h25.14.082,Colour_Similarity_Experiment_v1,2020.1.2,Win32,60,5ff3a352adaa099f7659f8cc,,,,,,,,,,,,,,,,,,,,FF,,,,,,,,6,1.738025,,,,,,,,,,,,,,,,,,,,,,,,,,,,6,51,28,1,0,0,response1disk,1,82,-6,2,1,0,0,rectangle,-6,2,1,0,0,6,5,0,0.00044,-6,2,1,0,0,0,81,81,5,1,,,,,,,,,,,,,,,,,,,,,
,,,,,,,,,,,,,,,,,,,,,,,,,,,,,,,,,,,,,,,,,,,5fd200f17bdf7823f5b3d5e8,5ff3a3cf4e54095081c164d4,2021-01-05_00h25.14.082,Colour_Similarity_Experiment_v1,2020.1.2,Win32,60,5ff3a352adaa099f7659f8cc,,,,,,,,,,,,,,,,,,,,PF,,,,,,,,3,2.89912,,,,,,,,,,,,,,,,,,,,,,,,,,,,6,-39,-88,1,0,0,response5disk,5,83,-5,-1,1,0,0,rectangle,-5,-1,1,0,0,6,5,0,0.00059,-5,-1,1,0,0,0,82,82,59,1,,,,,,,,,,,,,,,,,,,,,
,,,,,,,,,,,,,,,,,,,,,,,,,,,,,,,,,,,,,,,,,,,5fd200f17bdf7823f5b3d5e8,5ff3a3cf4e54095081c164d4,2021-01-05_00h25.14.082,Colour_Similarity_Experiment_v1,2020.1.2,Win32,60,5ff3a352adaa099f7659f8cc,,,,,,,,,,,,,,,,,,,,FF,,,,,,,,4,1.39488,,,,,,,,,,,,,,,,,,,,,,,,,,,,1,31,-71,1,0,0,response3disk,2,84,-3,-4,1,0,0,rectangle,-3,-4,1,0,0,6,1,0,0.00071,-3,-4,1,0,0,0,83,83,2,1,,,,,,,,,,,,,,,,,,,,,
,,,,,,,,,,,,,,,,,,,,,,,,,,,,,,,,,,,,,,,,,,,5fd200f17bdf7823f5b3d5e8,5ff3a3cf4e54095081c164d4,2021-01-05_00h25.14.082,Colour_Similarity_Experiment_v1,2020.1.2,Win32,60,5ff3a352adaa099f7659f8cc,,,,,,,,,,,,,,,,,,,,PF,,,,,,,,0,1.336735,,,,,,,,,,,,,,,,,,,,,,,,,,,,8,-35,64,1,0,0,response7disk,8,85,-11,-3,1,0,0,rectangle,-11,-3,1,0,0,6,1,0,0.00043,-11,-3,1,0,0,0,84,84,153,1,,,,,,,,,,,,,,,,,,,,,
,,,,,,,,,,,,,,,,,,,,,,,,,,,,,,,,,,,,,,,,,,,5fd200f17bdf7823f5b3d5e8,5ff3a3cf4e54095081c164d4,2021-01-05_00h25.14.082,Colour_Similarity_Experiment_v1,2020.1.2,Win32,60,5ff3a352adaa099f7659f8cc,,,,,,,,,,,,,,,,,,,,PF,,,,,,,,1,1.104145,,,,,,,,,,,,,,,,,,,,,,,,,,,,1,-68,30,1,0,0,response7disk,9,86,-7,-9,1,0,0,rectangle,-7,-9,1,0,0,6,2,0,0.00083,-7,-9,1,0,0,0,85,85,15,1,,,,,,,,,,,,,,,,,,,,,
,,,,,,,,,,,,,,,,,,,,,,,,,,,,,,,,,,,,,,,,,,,5fd200f17bdf7823f5b3d5e8,5ff3a3cf4e54095081c164d4,2021-01-05_00h25.14.082,Colour_Similarity_Experiment_v1,2020.1.2,Win32,60,5ff3a352adaa099f7659f8cc,,,,,,,,,,,,,,,,,,,,PF,,,,,,,,0,4.152625,,,,,,,,,,,,,,,,,,,,,,,,,,,,4,-35,67,1,0,0,response7disk,4,87,-15,11,1,0,0,rectangle,-15,11,1,0,0,6,3,0,0.000465,-15,11,1,0,0,0,86,86,70,1,,,,,,,,,,,,,,,,,,,,,
,,,,,,,,,,,,,,,,,,,,,,,,,,,,,,,,,,,,,,,,,,,5fd200f17bdf7823f5b3d5e8,5ff3a3cf4e54095081c164d4,2021-01-05_00h25.14.082,Colour_Similarity_Experiment_v1,2020.1.2,Win32,60,5ff3a352adaa099f7659f8cc,,,,,,,,,,,,,,,,,,,,FF,,,,,,,,3,1.388745,,,,,,,,,,,,,,,,,,,,,,,,,,,,7,-31,-76,1,0,0,response5disk,4,88,-16,-4,1,0,0,rectangle,-16,-4,1,0,0,6,2,0,0.000405,-16,-4,1,0,0,0,87,87,158,1,,,,,,,,,,,,,,,,,,,,,
,,,,,,,,,,,,,,,,,,,,,,,,,,,,,,,,,,,,,,,,,,,5fd200f17bdf7823f5b3d5e8,5ff3a3cf4e54095081c164d4,2021-01-05_00h25.14.082,Colour_Similarity_Experiment_v1,2020.1.2,Win32,60,5ff3a352adaa099f7659f8cc,,,,,,,,,,,,,,,,,,,,FF,,,,,,,,7,1.54069,,,,,,,,,,,,,,,,,,,,,,,,,,,,1,49,76,1,0,0,response1disk,6,89,25,3,1,0,0,rectangle,25,3,1,0,0,6,2,0,0.00042,25,3,1,0,0,0,88,88,58,1,,,,,,,,,,,,,,,,,,,,,
,,,,,,,,,,,,,,,,,,,,,,,,,,,,,,,,,,,,,,,,,,,5fd200f17bdf7823f5b3d5e8,5ff3a3cf4e54095081c164d4,2021-01-05_00h25.14.082,Colour_Similarity_Experiment_v1,2020.1.2,Win32,60,5ff3a352adaa099f7659f8cc,,,,,,,,,,,,,,,,,,,,FF,,,,,,,,7,0.945445,,,,,,,,,,,,,,,,,,,,,,,,,,,,1,30,77,1,0,0,response1disk,7,90,1,6,1,0,0,rectangle,1,6,1,0,0,6,5,0,0.00054,1,6,1,0,0,0,89,89,137,1,,,,,,,,,,,,,,,,,,,,,
,,,,,,,,,,,,,,,,,,,,,,,,,,,,,,,,,,,,,,,,,,,5fd200f17bdf7823f5b3d5e8,5ff3a3cf4e54095081c164d4,2021-01-05_00h25.14.082,Colour_Similarity_Experiment_v1,2020.1.2,Win32,60,5ff3a352adaa099f7659f8cc,,,,,,,,,,,,,,,,,,,,PF,,,,,,,,7,1.080035,,,,,,,,,,,,,,,,,,,,,,,,,,,,5,45,66,1,0,0,response1disk,9,91,1,3,1,0,0,rectangle,26,-69,1,0,0,4,4,1,2.019885,-10,-1,1,0,0,0,90,90,136,1,response3disk_3,rectangle,,,,,,,,,,,,,,,,,,,
,,,,,,,,,,,,,,,,,,,,,,,,,,,,,,,,,,,,,,,,,,,5fd200f17bdf7823f5b3d5e8,5ff3a3cf4e54095081c164d4,2021-01-05_00h25.14.082,Colour_Similarity_Experiment_v1,2020.1.2,Win32,60,5ff3a352adaa099f7659f8cc,,,,,,,,,,,,,,,,,,,,PF,,,,,,,,5,1.104555,,,,,,,,,,,,,,,,,,,,,,,,,,,,7,64,-39,1,0,0,response3disk,3,92,-12,2,1,0,0,rectangle,-12,2,1,0,0,4,7,0,0.000475,-12,2,1,0,0,0,91,91,81,1,,,,,,,,,,,,,,,,,,,,,
,,,,,,,,,,,,,,,,,,,,,,,,,,,,,,,,,,,,,,,,,,,5fd200f17bdf7823f5b3d5e8,5ff3a3cf4e54095081c164d4,2021-01-05_00h25.14.082,Colour_Similarity_Experiment_v1,2020.1.2,Win32,60,5ff3a352adaa099f7659f8cc,,,,,,,,,,,,,,,,,,,,PF,,,,,,,,3,1.32835,,,,,,,,,,,,,,,,,,,,,,,,,,,,9,-47,-79,1,0,0,response5disk,8,93,-17,-1,1,0,0,rectangle,-17,-1,1,0,0,4,5,0,0.00042,-17,-1,1,0,0,0,92,92,67,1,,,,,,,,,,,,,,,,,,,,,
,,,,,,,,,,,,,,,,,,,,,,,,,,,,,,,,,,,,,,,,,,,5fd200f17bdf7823f5b3d5e8,5ff3a3cf4e54095081c164d4,2021-01-05_00h25.14.082,Colour_Similarity_Experiment_v1,2020.1.2,Win32,60,5ff3a352adaa099f7659f8cc,,,,,,,,,,,,,,,,,,,,PF,,,,,,,,7,1.261405,,,,,,,,,,,,,,,,,,,,,,,,,,,,1,58,73,1,0,0,response1disk,4,94,17,7,1,0,0,rectangle,17,7,1,0,0,4,7,0,0.00049,17,7,1,0,0,0,93,93,139,1,,,,,,,,,,,,,,,,,,,,,
,,,,,,,,,,,,,,,,,,,,,,,,,,,,,,,,,,,,,,,,,,,5fd200f17bdf7823f5b3d5e8,5ff3a3cf4e54095081c164d4,2021-01-05_00h25.14.082,Colour_Similarity_Experiment_v1,2020.1.2,Win32,60,5ff3a352adaa099f7659f8cc,,,,,,,,,,,,,,,,,,,,FF,,,,,,,,4,1.557775,,,,,,,,,,,,,,,,,,,,,,,,,,,,7,39,-72,1,0,0,response3disk,8,95,14,1,1,0,0,rectangle,34,-69,1,0,0,4,4,1,3.717275,-11,2,1,0,0,0,94,94,97,1,response3disk_3,rectangle,,,,,,,,,,,,,,,,,,,
,,,,,,,,,,,,,,,,,,,,,,,,,,,,,,,,,,,,,,,,,,,5fd200f17bdf7823f5b3d5e8,5ff3a3cf4e54095081c164d4,2021-01-05_00h25.14.082,Colour_Similarity_Experiment_v1,2020.1.2,Win32,60,5ff3a352adaa099f7659f8cc,,,,,,,,,,,,,,,,,,,,FF,,,,,,,,7,1.100405,,,,,,,,,,,,,,,,,,,,,,,,,,,,7,34,75,1,0,0,response1disk,1,96,3,7,1,0,0,rectangle,3,7,1,0,0,4,3,0,0.0009,3,7,1,0,0,0,95,95,132,1,,,,,,,,,,,,,,,,,,,,,
,,,,,,,,,,,,,,,,,,,,,,,,,,,,,,,,,,,,,,,,,,,5fd200f17bdf7823f5b3d5e8,5ff3a3cf4e54095081c164d4,2021-01-05_00h25.14.082,Colour_Similarity_Experiment_v1,2020.1.2,Win32,60,5ff3a352adaa099f7659f8cc,,,,,,,,,,,,,,,,,,,,FF,,,,,,,,6,1.75229,,,,,,,,,,,,,,,,,,,,,,,,,,,,6,76,29,1,0,0,response1disk,9,97,17,-1,1,0,0,rectangle,-47,59,1,0,0,0,0,1,1.949995,7,1,1,0,0,0,96,96,160,1,response7disk_3,rectangle,,,,,,,,,,,,,,,,,,,
,,,,,,,,,,,,,,,,,,,,,,,,,,,,,,,,,,,,,,,,,,,5fd200f17bdf7823f5b3d5e8,5ff3a3cf4e54095081c164d4,2021-01-05_00h25.14.082,Colour_Similarity_Experiment_v1,2020.1.2,Win32,60,5ff3a352adaa099f7659f8cc,,,,,,,,,,,,,,,,,,,,PF,,,,,,,,5,9.05256,,,,,,,,,,,,,,,,,,,,,,,,,,,,7,49,-23,1,0,0,response3disk,6,98,-11,13,1,0,0,rectangle,-11,13,1,0,0,0,2,0,0.00072,-11,13,1,0,0,0,97,97,29,1,,,,,,,,,,,,,,,,,,,,,
,,,,,,,,,,,,,,,,,,,,,,,,,,,,,,,,,,,,,,,,,,,5fd200f17bdf7823f5b3d5e8,5ff3a3cf4e54095081c164d4,2021-01-05_00h25.14.082,Colour_Similarity_Experiment_v1,2020.1.2,Win32,60,5ff3a352adaa099f7659f8cc,,,,,,,,,,,,,,,,,,,,FF,,,,,,,,6,1.438115,,,,,,,,,,,,,,,,,,,,,,,,,,,,5,66,44,1,0,0,response1disk,9,99,7,-1,1,0,0,rectangle,7,-1,1,0,0,0,6,0,0.000785,7,-1,1,0,0,0,98,98,61,1,,,,,,,,,,,,,,,,,,,,,
,,,,,,,,,,,,,,,,,,,,,,,,,,,,,,,,,,,,,,,,,,,5fd200f17bdf7823f5b3d5e8,5ff3a3cf4e54095081c164d4,2021-01-05_00h25.14.082,Colour_Similarity_Experiment_v1,2020.1.2,Win32,60,5ff3a352adaa099f7659f8cc,,,,,,,,,,,,,,,,,,,,FF,,,,,,,,6,1.027455,,,,,,,,,,,,,,,,,,,,,,,,,,,,9,57,36,1,0,0,response1disk,5,100,1,4,1,0,0,rectangle,1,4,1,0,0,0,1,0,0.000465,1,4,1,0,0,0,99,99,128,1,,,,,,,,,,,,,,,,,,,,,
,,,,,,,,,,,,,,,,,,,,,,,,,,,,,,,,,,,,,,,,,,,5fd200f17bdf7823f5b3d5e8,5ff3a3cf4e54095081c164d4,2021-01-05_00h25.14.082,Colour_Similarity_Experiment_v1,2020.1.2,Win32,60,5ff3a352adaa099f7659f8cc,,,,,,,,,,,,,,,,,,,,FF,,,,,,,,1,1.39602,,,,,,,,,,,,,,,,,,,,,,,,,,,,5,-60,25,1,0,0,response7disk,4,101,11,-3,1,0,0,rectangle,11,-3,1,0,0,0,7,0,0.00051,11,-3,1,0,0,0,100,100,8,1,,,,,,,,,,,,,,,,,,,,,
,,,,,,,,,,,,,,,,,,,,,,,,,,,,,,,,,,,,,,,,,,,5fd200f17bdf7823f5b3d5e8,5ff3a3cf4e54095081c164d4,2021-01-05_00h25.14.082,Colour_Similarity_Experiment_v1,2020.1.2,Win32,60,5ff3a352adaa099f7659f8cc,,,,,,,,,,,,,,,,,,,,PF,,,,,,,,6,1.38479,,,,,,,,,,,,,,,,,,,,,,,,,,,,9,70,50,1,0,0,response1disk,3,102,5,10,1,0,0,rectangle,5,10,1,0,0,0,1,0,0.000695,5,10,1,0,0,0,101,101,119,1,,,,,,,,,,,,,,,,,,,,,
,,,,,,,,,,,,,,,,,,,,,,,,,,,,,,,,,,,,,,,,,,,5fd200f17bdf7823f5b3d5e8,5ff3a3cf4e54095081c164d4,2021-01-05_00h25.14.082,Colour_Similarity_Experiment_v1,2020.1.2,Win32,60,5ff3a352adaa099f7659f8cc,,,,,,,,,,,,,,,,,,,,PF,,,,,,,,6,0.874575,,,,,,,,,,,,,,,,,,,,,,,,,,,,3,74,38,1,0,0,response1disk,9,103,6,0,1,0,0,rectangle,6,0,1,0,0,0,2,0,0.000765,6,0,1,0,0,0,102,102,79,1,,,,,,,,,,,,,,,,,,,,,
,,,,,,,,,,,,,,,,,,,,,,,,,,,,,,,,,,,,,,,,,,,5fd200f17bdf7823f5b3d5e8,5ff3a3cf4e54095081c164d4,2021-01-05_00h25.14.082,Colour_Similarity_Experiment_v1,2020.1.2,Win32,60,5ff3a352adaa099f7659f8cc,,,,,,,,,,,,,,,,,,,,FF,,,,,,,,5,3.837595,,,,,,,,,,,,,,,,,,,,,,,,,,,,9,78,-46,1,0,0,response3disk,6,104,-1,1,1,0,0,rectangle,-1,1,1,0,0,0,2,0,0.000915,-1,1,1,0,0,0,103,103,117,1,,,,,,,,,,,,,,,,,,,,,
,,,,,,,,,,,,,,,,,,,,,,,,,,,,,,,,,,,,,,,,,,,5fd200f17bdf7823f5b3d5e8,5ff3a3cf4e54095081c164d4,2021-01-05_00h25.14.082,Colour_Similarity_Experiment_v1,2020.1.2,Win32,60,5ff3a352adaa099f7659f8cc,,,,,,,,,,,,,,,,,,,,FF,,,,,,,,4,2.0539,,,,,,,,,,,,,,,,,,,,,,,,,,,,3,40,-82,1,0,0,response3disk,2,105,33,-4,1,0,0,rectangle,33,-4,1,0,0,0,7,0,0.000465,33,-4,1,0,0,0,104,104,93,1,,,,,,,,,,,,,,,,,,,,,
,,,,,,,,,,,,,,,,,,,,,,,,,,,,,,,,,,,,,,,,,,,5fd200f17bdf7823f5b3d5e8,5ff3a3cf4e54095081c164d4,2021-01-05_00h25.14.082,Colour_Similarity_Experiment_v1,2020.1.2,Win32,60,5ff3a352adaa099f7659f8cc,,,,,,,,,,,,,,,,,,,,PF,,,,,,,,6,1.286235,,,,,,,,,,,,,,,,,,,,,,,,,,,,9,53,38,1,0,0,response1disk,5,106,-31,-11,1,0,0,rectangle,-31,-11,1,0,0,0,0,0,0.00046,-31,-11,1,0,0,0,105,105,134,1,,,,,,,,,,,,,,,,,,,,,
,,,,,,,,,,,,,,,,,,,,,,,,,,,,,,,,,,,,,,,,,,,5fd200f17bdf7823f5b3d5e8,5ff3a3cf4e54095081c164d4,2021-01-05_00h25.14.082,Colour_Similarity_Experiment_v1,2020.1.2,Win32,60,5ff3a352adaa099f7659f8cc,,,,,,,,,,,,,,,,,,,,FF,,,,,,,,6,1.031965,,,,,,,,,,,,,,,,,,,,,,,,,,,,1,55,29,1,0,0,response1disk,5,107,-14,-4,1,0,0,rectangle,-14,-4,1,0,0,0,0,0,0.00048,-14,-4,1,0,0,0,106,106,82,1,,,,,,,,,,,,,,,,,,,,,
,,,,,,,,,,,,,,,,,,,,,,,,,,,,,,,,,,,,,,,,,,,5fd200f17bdf7823f5b3d5e8,5ff3a3cf4e54095081c164d4,2021-01-05_00h25.14.082,Colour_Similarity_Experiment_v1,2020.1.2,Win32,60,5ff3a352adaa099f7659f8cc,,,,,,,,,,,,,,,,,,,,FF,,,,,,,,6,1.364345,,,,,,,,,,,,,,,,,,,,,,,,,,,,3,74,31,1,0,0,response1disk,1,108,6,-6,1,0,0,rectangle,6,-6,1,0,0,0,5,0,0.000475,6,-6,1,0,0,0,107,107,125,1,,,,,,,,,,,,,,,,,,,,,
,,,,,,,,,,,,,,,,,,,,,,,,,,,,,,,,,,,,,,,,,,,5fd200f17bdf7823f5b3d5e8,5ff3a3cf4e54095081c164d4,2021-01-05_00h25.14.082,Colour_Similarity_Experiment_v1,2020.1.2,Win32,60,5ff3a352adaa099f7659f8cc,,,,,,,,,,,,,,,,,,,,PF,,,,,,,,7,0.96666,,,,,,,,,,,,,,,,,,,,,,,,,,,,1,37,73,1,0,0,response1disk,6,109,2,3,1,0,0,rectangle,2,3,1,0,0,0,7,0,0.00074,2,3,1,0,0,0,108,108,144,1,,,,,,,,,,,,,,,,,,,,,
,,,,,,,,,,,,,,,,,,,,,,,,,,,,,,,,,,,,,,,,,,,5fd200f17bdf7823f5b3d5e8,5ff3a3cf4e54095081c164d4,2021-01-05_00h25.14.082,Colour_Similarity_Experiment_v1,2020.1.2,Win32,60,5ff3a352adaa099f7659f8cc,,,,,,,,,,,,,,,,,,,,FF,,,,,,,,7,0.79638,,,,,,,,,,,,,,,,,,,,,,,,,,,,7,32,63,1,0,0,response1disk,9,110,4,2,1,0,0,rectangle,4,2,1,0,0,0,7,0,0.00052,4,2,1,0,0,0,109,109,155,1,,,,,,,,,,,,,,,,,,,,,
,,,,,,,,,,,,,,,,,,,,,,,,,,,,,,,,,,,,,,,,,,,5fd200f17bdf7823f5b3d5e8,5ff3a3cf4e54095081c164d4,2021-01-05_00h25.14.082,Colour_Similarity_Experiment_v1,2020.1.2,Win32,60,5ff3a352adaa099f7659f8cc,,,,,,,,,,,,,,,,,,,,PF,,,,,,,,0,1.13761,,,,,,,,,,,,,,,,,,,,,,,,,,,,3,-41,85,1,0,0,response7disk,3,111,-6,6,1,0,0,rectangle,-6,6,1,0,0,0,6,0,0.0012,-6,6,1,0,0,0,110,110,4,1,,,,,,,,,,,,,,,,,,,,,
,,,,,,,,,,,,,,,,,,,,,,,,,,,,,,,,,,,,,,,,,,,5fd200f17bdf7823f5b3d5e8,5ff3a3cf4e54095081c164d4,2021-01-05_00h25.14.082,Colour_Similarity_Experiment_v1,2020.1.2,Win32,60,5ff3a352adaa099f7659f8cc,,,,,,,,,,,,,,,,,,,,FF,,,,,,,,0,1.359425,,,,,,,,,,,,,,,,,,,,,,,,,,,,3,-32,79,1,0,0,response7disk,4,112,0,3,1,0,0,rectangle,0,3,1,0,0,0,2,0,0.000435,0,3,1,0,0,0,111,111,110,1,,,,,,,,,,,,,,,,,,,,,
,,,,,,,,,,,,,,,,,,,,,,,,,,,,,,,,,,,,,,,,,,,5fd200f17bdf7823f5b3d5e8,5ff3a3cf4e54095081c164d4,2021-01-05_00h25.14.082,Colour_Similarity_Experiment_v1,2020.1.2,Win32,60,5ff3a352adaa099f7659f8cc,,,,,,,,,,,,,,,,,,,,PF,,,,,,,,0,1.057025,,,,,,,,,,,,,,,,,,,,,,,,,,,,1,-37,98,1,0,0,response7disk,1,113,-6,1,1,0,0,rectangle,-32,-70,1,0,0,3,3,1,1.98439,4,5,1,0,0,0,112,112,76,1,response5disk_3,rectangle,,,,,,,,,,,,,,,,,,,
,,,,,,,,,,,,,,,,,,,,,,,,,,,,,,,,,,,,,,,,,,,5fd200f17bdf7823f5b3d5e8,5ff3a3cf4e54095081c164d4,2021-01-05_00h25.14.082,Colour_Similarity_Experiment_v1,2020.1.2,Win32,60,5ff3a352adaa099f7659f8cc,,,,,,,,,,,,,,,,,,,,PF,,,,,,,,6,1.4167,,,,,,,,,,,,,,,,,,,,,,,,,,,,8,71,30,1,0,0,response1disk,2,114,25,5,1,0,0,rectangle,25,5,1,0,0,3,5,0,0.00076,25,5,1,0,0,0,113,113,83,1,,,,,,,,,,,,,,,,,,,,,
,,,,,,,,,,,,,,,,,,,,,,,,,,,,,,,,,,,,,,,,,,,5fd200f17bdf7823f5b3d5e8,5ff3a3cf4e54095081c164d4,2021-01-05_00h25.14.082,Colour_Similarity_Experiment_v1,2020.1.2,Win32,60,5ff3a352adaa099f7659f8cc,,,,,,,,,,,,,,,,,,,,PF,,,,,,,,6,0.74716,,,,,,,,,,,,,,,,,,,,,,,,,,,,6,57,34,1,0,0,response1disk,2,115,-2,0,1,0,0,rectangle,-2,0,1,0,0,3,4,0,0.00042,-2,0,1,0,0,0,114,114,130,1,,,,,,,,,,,,,,,,,,,,,
,,,,,,,,,,,,,,,,,,,,,,,,,,,,,,,,,,,,,,,,,,,5fd200f17bdf7823f5b3d5e8,5ff3a3cf4e54095081c164d4,2021-01-05_00h25.14.082,Colour_Similarity_Experiment_v1,2020.1.2,Win32,60,5ff3a352adaa099f7659f8cc,,,,,,,,,,,,,,,,,,,,FF,,,,,,,,5,1.300605,,,,,,,,,,,,,,,,,,,,,,,,,,,,5,88,-32,1,0,0,response3disk,1,116,27,9,1,0,0,rectangle,27,9,1,0,0,3,1,0,0.000485,27,9,1,0,0,0,115,115,131,1,,,,,,,,,,,,,,,,,,,,,
,,,,,,,,,,,,,,,,,,,,,,,,,,,,,,,,,,,,,,,,,,,5fd200f17bdf7823f5b3d5e8,5ff3a3cf4e54095081c164d4,2021-01-05_00h25.14.082,Colour_Similarity_Experiment_v1,2020.1.2,Win32,60,5ff3a352adaa099f7659f8cc,,,,,,,,,,,,,,,,,,,,PF,,,,,,,,3,1.44291,,,,,,,,,,,,,,,,,,,,,,,,,,,,1,-36,-78,1,0,0,response5disk,2,117,8,6,1,0,0,rectangle,8,6,1,0,0,3,4,0,0.00092,8,6,1,0,0,0,116,116,24,1,,,,,,,,,,,,,,,,,,,,,
,,,,,,,,,,,,,,,,,,,,,,,,,,,,,,,,,,,,,,,,,,,5fd200f17bdf7823f5b3d5e8,5ff3a3cf4e54095081c164d4,2021-01-05_00h25.14.082,Colour_Similarity_Experiment_v1,2020.1.2,Win32,60,5ff3a352adaa099f7659f8cc,,,,,,,,,,,,,,,,,,,,PF,,,,,,,,4,1.123335,,,,,,,,,,,,,,,,,,,,,,,,,,,,6,65,-111,1,0,0,response3disk,8,118,12,-14,1,0,0,rectangle,12,-14,1,0,0,3,3,0,0.00075,12,-14,1,0,0,0,117,117,64,1,,,,,,,,,,,,,,,,,,,,,
,,,,,,,,,,,,,,,,,,,,,,,,,,,,,,,,,,,,,,,,,,,5fd200f17bdf7823f5b3d5e8,5ff3a3cf4e54095081c164d4,2021-01-05_00h25.14.082,Colour_Similarity_Experiment_v1,2020.1.2,Win32,60,5ff3a352adaa099f7659f8cc,,,,,,,,,,,,,,,,,,,,PF,,,,,,,,6,1.04941,,,,,,,,,,,,,,,,,,,,,,,,,,,,3,82,29,1,0,0,response1disk,8,119,16,-7,1,0,0,rectangle,16,-7,1,0,0,3,3,0,0.000455,16,-7,1,0,0,0,118,118,3,1,,,,,,,,,,,,,,,,,,,,,
,,,,,,,,,,,,,,,,,,,,,,,,,,,,,,,,,,,,,,,,,,,5fd200f17bdf7823f5b3d5e8,5ff3a3cf4e54095081c164d4,2021-01-05_00h25.14.082,Colour_Similarity_Experiment_v1,2020.1.2,Win32,60,5ff3a352adaa099f7659f8cc,,,,,,,,,,,,,,,,,,,,PF,,,,,,,,6,0.733535,,,,,,,,,,,,,,,,,,,,,,,,,,,,4,79,35,1,0,0,response1disk,6,120,-2,6,1,0,0,rectangle,-2,6,1,0,0,3,0,0,0.000445,-2,6,1,0,0,0,119,119,120,1,,,,,,,,,,,,,,,,,,,,,
,,,,,,,,,,,,,,,,,,,,,,,,,,,,,,,,,,,,,,,,,,,5fd200f17bdf7823f5b3d5e8,5ff3a3cf4e54095081c164d4,2021-01-05_00h25.14.082,Colour_Similarity_Experiment_v1,2020.1.2,Win32,60,5ff3a352adaa099f7659f8cc,,,,,,,,,,,,,,,,,,,,PF,,,,,,,,5,1.001205,,,,,,,,,,,,,,,,,,,,,,,,,,,,8,61,-34,1,0,0,response3disk,6,121,-14,1,1,0,0,rectangle,74,39,1,0,0,6,6,1,1.516865,-5,6,1,0,0,0,120,120,161,1,response1disk_3,rectangle,,,,,,,,,,,,,,,,,,,
,,,,,,,,,,,,,,,,,,,,,,,,,,,,,,,,,,,,,,,,,,,5fd200f17bdf7823f5b3d5e8,5ff3a3cf4e54095081c164d4,2021-01-05_00h25.14.082,Colour_Similarity_Experiment_v1,2020.1.2,Win32,60,5ff3a352adaa099f7659f8cc,,,,,,,,,,,,,,,,,,,,PF,,,,,,,,4,3.483515,,,,,,,,,,,,,,,,,,,,,,,,,,,,7,47,-51,1,0,0,response3disk,2,122,1,-7,1,0,0,rectangle,1,-7,1,0,0,6,5,0,0.00074,1,-7,1,0,0,0,121,121,32,1,,,,,,,,,,,,,,,,,,,,,
,,,,,,,,,,,,,,,,,,,,,,,,,,,,,,,,,,,,,,,,,,,5fd200f17bdf7823f5b3d5e8,5ff3a3cf4e54095081c164d4,2021-01-05_00h25.14.082,Colour_Similarity_Experiment_v1,2020.1.2,Win32,60,5ff3a352adaa099f7659f8cc,,,,,,,,,,,,,,,,,,,,FF,,,,,,,,4,1.665195,,,,,,,,,,,,,,,,,,,,,,,,,,,,8,47,-81,1,0,0,response3disk,7,123,14,-10,1,0,0,rectangle,14,-10,1,0,0,6,0,0,0.000535,14,-10,1,0,0,0,122,122,86,1,,,,,,,,,,,,,,,,,,,,,
,,,,,,,,,,,,,,,,,,,,,,,,,,,,,,,,,,,,,,,,,,,5fd200f17bdf7823f5b3d5e8,5ff3a3cf4e54095081c164d4,2021-01-05_00h25.14.082,Colour_Similarity_Experiment_v1,2020.1.2,Win32,60,5ff3a352adaa099f7659f8cc,,,,,,,,,,,,,,,,,,,,PF,,,,,,,,0,0.94898,,,,,,,,,,,,,,,,,,,,,,,,,,,,7,-44,83,1,0,0,response7disk,7,124,-11,-1,1,0,0,rectangle,-11,-1,1,0,0,6,1,0,0.000605,-11,-1,1,0,0,0,123,123,51,1,,,,,,,,,,,,,,,,,,,,,
,,,,,,,,,,,,,,,,,,,,,,,,,,,,,,,,,,,,,,,,,,,5fd200f17bdf7823f5b3d5e8,5ff3a3cf4e54095081c164d4,2021-01-05_00h25.14.082,Colour_Similarity_Experiment_v1,2020.1.2,Win32,60,5ff3a352adaa099f7659f8cc,,,,,,,,,,,,,,,,,,,,PF,,,,,,,,5,7.613805,,,,,,,,,,,,,,,,,,,,,,,,,,,,3,62,-34,1,0,0,response3disk,6,125,-4,-7,1,0,0,rectangle,-4,-7,1,0,0,6,7,0,0.000425,-4,-7,1,0,0,0,124,124,47,1,,,,,,,,,,,,,,,,,,,,,
,,,,,,,,,,,,,,,,,,,,,,,,,,,,,,,,,,,,,,,,,,,5fd200f17bdf7823f5b3d5e8,5ff3a3cf4e54095081c164d4,2021-01-05_00h25.14.082,Colour_Similarity_Experiment_v1,2020.1.2,Win32,60,5ff3a352adaa099f7659f8cc,,,,,,,,,,,,,,,,,,,,PF,,,,,,,,4,1.13379,,,,,,,,,,,,,,,,,,,,,,,,,,,,2,21,-63,1,0,0,response3disk,9,126,4,3,1,0,0,rectangle,4,3,1,0,0,6,5,0,0.000545,4,3,1,0,0,0,125,125,39,1,,,,,,,,,,,,,,,,,,,,,
,,,,,,,,,,,,,,,,,,,,,,,,,,,,,,,,,,,,,,,,,,,5fd200f17bdf7823f5b3d5e8,5ff3a3cf4e54095081c164d4,2021-01-05_00h25.14.082,Colour_Similarity_Experiment_v1,2020.1.2,Win32,60,5ff3a352adaa099f7659f8cc,,,,,,,,,,,,,,,,,,,,FF,,,,,,,,6,0.832515,,,,,,,,,,,,,,,,,,,,,,,,,,,,2,55,34,1,0,0,response1disk,7,127,12,3,1,0,0,rectangle,12,3,1,0,0,6,2,0,0.000765,12,3,1,0,0,0,126,126,63,1,,,,,,,,,,,,,,,,,,,,,
,,,,,,,,,,,,,,,,,,,,,,,,,,,,,,,,,,,,,,,,,,,5fd200f17bdf7823f5b3d5e8,5ff3a3cf4e54095081c164d4,2021-01-05_00h25.14.082,Colour_Similarity_Experiment_v1,2020.1.2,Win32,60,5ff3a352adaa099f7659f8cc,,,,,,,,,,,,,,,,,,,,PF,,,,,,,,6,0.800705,,,,,,,,,,,,,,,,,,,,,,,,,,,,9,52,27,1,0,0,response1disk,6,128,6,0,1,0,0,rectangle,6,0,1,0,0,6,2,0,0.0005,6,0,1,0,0,0,127,127,148,1,,,,,,,,,,,,,,,,,,,,,
,,,,,,,,,,,,,,,,,,,,,,,,,,,,,,,,,,,,,,,,,,,5fd200f17bdf7823f5b3d5e8,5ff3a3cf4e54095081c164d4,2021-01-05_00h25.14.082,Colour_Similarity_Experiment_v1,2020.1.2,Win32,60,5ff3a352adaa099f7659f8cc,,,,,,,,,,,,,,,,,,,,PF,,,,,,,,7,0.849835,,,,,,,,,,,,,,,,,,,,,,,,,,,,1,40,75,1,0,0,response1disk,7,129,4,8,1,0,0,rectangle,4,8,1,0,0,6,5,0,0.00051,4,8,1,0,0,0,128,128,150,1,,,,,,,,,,,,,,,,,,,,,
,,,,,,,,,,,,,,,,,,,,,,,,,,,,,,,,,,,,,,,,,,,5fd200f17bdf7823f5b3d5e8,5ff3a3cf4e54095081c164d4,2021-01-05_00h25.14.082,Colour_Similarity_Experiment_v1,2020.1.2,Win32,60,5ff3a352adaa099f7659f8cc,,,,,,,,,,,,,,,,,,,,FF,,,,,,,,0,0.9163,,,,,,,,,,,,,,,,,,,,,,,,,,,,5,-26,86,1,0,0,response7disk,5,130,1,6,1,0,0,rectangle,1,6,1,0,0,6,4,0,0.00048,1,6,1,0,0,0,129,129,19,1,,,,,,,,,,,,,,,,,,,,,
,,,,,,,,,,,,,,,,,,,,,,,,,,,,,,,,,,,,,,,,,,,5fd200f17bdf7823f5b3d5e8,5ff3a3cf4e54095081c164d4,2021-01-05_00h25.14.082,Colour_Similarity_Experiment_v1,2020.1.2,Win32,60,5ff3a352adaa099f7659f8cc,,,,,,,,,,,,,,,,,,,,PF,,,,,,,,5,1.7829,,,,,,,,,,,,,,,,,,,,,,,,,,,,9,67,-40,1,0,0,response3disk,4,131,-4,2,1,0,0,rectangle,-4,2,1,0,0,6,5,0,0.00056,-4,2,1,0,0,0,130,130,114,1,,,,,,,,,,,,,,,,,,,,,
,,,,,,,,,,,,,,,,,,,,,,,,,,,,,,,,,,,,,,,,,,,5fd200f17bdf7823f5b3d5e8,5ff3a3cf4e54095081c164d4,2021-01-05_00h25.14.082,Colour_Similarity_Experiment_v1,2020.1.2,Win32,60,5ff3a352adaa099f7659f8cc,,,,,,,,,,,,,,,,,,,,FF,,,,,,,,5,1.398915,,,,,,,,,,,,,,,,,,,,,,,,,,,,1,62,-37,1,0,0,response3disk,8,132,16,5,1,0,0,rectangle,16,5,1,0,0,6,2,0,0.000445,16,5,1,0,0,0,131,131,27,1,,,,,,,,,,,,,,,,,,,,,
,,,,,,,,,,,,,,,,,,,,,,,,,,,,,,,,,,,,,,,,,,,5fd200f17bdf7823f5b3d5e8,5ff3a3cf4e54095081c164d4,2021-01-05_00h25.14.082,Colour_Similarity_Experiment_v1,2020.1.2,Win32,60,5ff3a352adaa099f7659f8cc,,,,,,,,,,,,,,,,,,,,FF,,,,,,,,6,0.900305,,,,,,,,,,,,,,,,,,,,,,,,,,,,5,56,38,1,0,0,response1disk,2,133,10,-3,1,0,0,rectangle,40,76,1,0,0,7,7,1,2.735605,4,8,1,0,0,0,132,132,55,1,response1disk_3,rectangle,,,,,,,,,,,,,,,,,,,
,,,,,,,,,,,,,,,,,,,,,,,,,,,,,,,,,,,,,,,,,,,5fd200f17bdf7823f5b3d5e8,5ff3a3cf4e54095081c164d4,2021-01-05_00h25.14.082,Colour_Similarity_Experiment_v1,2020.1.2,Win32,60,5ff3a352adaa099f7659f8cc,,,,,,,,,,,,,,,,,,,,FF,,,,,,,,6,0.949715,,,,,,,,,,,,,,,,,,,,,,,,,,,,7,66,54,1,0,0,response1disk,2,134,8,3,1,0,0,rectangle,8,3,1,0,0,7,1,0,0.000525,8,3,1,0,0,0,133,133,138,1,,,,,,,,,,,,,,,,,,,,,
,,,,,,,,,,,,,,,,,,,,,,,,,,,,,,,,,,,,,,,,,,,5fd200f17bdf7823f5b3d5e8,5ff3a3cf4e54095081c164d4,2021-01-05_00h25.14.082,Colour_Similarity_Experiment_v1,2020.1.2,Win32,60,5ff3a352adaa099f7659f8cc,,,,,,,,,,,,,,,,,,,,FF,,,,,,,,6,0.703995,,,,,,,,,,,,,,,,,,,,,,,,,,,,9,74,41,1,0,0,response1disk,4,135,15,4,1,0,0,rectangle,15,4,1,0,0,7,3,0,0.00049,15,4,1,0,0,0,134,134,60,1,,,,,,,,,,,,,,,,,,,,,
,,,,,,,,,,,,,,,,,,,,,,,,,,,,,,,,,,,,,,,,,,,5fd200f17bdf7823f5b3d5e8,5ff3a3cf4e54095081c164d4,2021-01-05_00h25.14.082,Colour_Similarity_Experiment_v1,2020.1.2,Win32,60,5ff3a352adaa099f7659f8cc,,,,,,,,,,,,,,,,,,,,PF,,,,,,,,6,0.782895,,,,,,,,,,,,,,,,,,,,,,,,,,,,5,59,29,1,0,0,response1disk,8,136,4,-3,1,0,0,rectangle,4,-3,1,0,0,7,4,0,0.000615,4,-3,1,0,0,0,135,135,149,1,,,,,,,,,,,,,,,,,,,,,
,,,,,,,,,,,,,,,,,,,,,,,,,,,,,,,,,,,,,,,,,,,5fd200f17bdf7823f5b3d5e8,5ff3a3cf4e54095081c164d4,2021-01-05_00h25.14.082,Colour_Similarity_Experiment_v1,2020.1.2,Win32,60,5ff3a352adaa099f7659f8cc,,,,,,,,,,,,,,,,,,,,FF,,,,,,,,5,1.632985,,,,,,,,,,,,,,,,,,,,,,,,,,,,8,54,-29,1,0,0,response3disk,2,137,10,6,1,0,0,rectangle,10,6,1,0,0,7,6,0,0.0005,10,6,1,0,0,0,136,136,22,1,,,,,,,,,,,,,,,,,,,,,
,,,,,,,,,,,,,,,,,,,,,,,,,,,,,,,,,,,,,,,,,,,5fd200f17bdf7823f5b3d5e8,5ff3a3cf4e54095081c164d4,2021-01-05_00h25.14.082,Colour_Similarity_Experiment_v1,2020.1.2,Win32,60,5ff3a352adaa099f7659f8cc,,,,,,,,,,,,,,,,,,,,FF,,,,,,,,0,0.85003,,,,,,,,,,,,,,,,,,,,,,,,,,,,6,-39,87,1,0,0,response7disk,6,138,-13,14,1,0,0,rectangle,-13,14,1,0,0,7,4,0,0.00055,-13,14,1,0,0,0,137,137,91,1,,,,,,,,,,,,,,,,,,,,,
,,,,,,,,,,,,,,,,,,,,,,,,,,,,,,,,,,,,,,,,,,,5fd200f17bdf7823f5b3d5e8,5ff3a3cf4e54095081c164d4,2021-01-05_00h25.14.082,Colour_Similarity_Experiment_v1,2020.1.2,Win32,60,5ff3a352adaa099f7659f8cc,,,,,,,,,,,,,,,,,,,,FF,,,,,,,,5,1.68243,,,,,,,,,,,,,,,,,,,,,,,,,,,,3,46,-25,1,0,0,response3disk,9,139,8,7,1,0,0,rectangle,8,7,1,0,0,7,3,0,0.000395,8,7,1,0,0,0,138,138,143,1,,,,,,,,,,,,,,,,,,,,,
,,,,,,,,,,,,,,,,,,,,,,,,,,,,,,,,,,,,,,,,,,,5fd200f17bdf7823f5b3d5e8,5ff3a3cf4e54095081c164d4,2021-01-05_00h25.14.082,Colour_Similarity_Experiment_v1,2020.1.2,Win32,60,5ff3a352adaa099f7659f8cc,,,,,,,,,,,,,,,,,,,,FF,,,,,,,,6,1.38131,,,,,,,,,,,,,,,,,,,,,,,,,,,,2,71,39,1,0,0,response1disk,3,140,2,-11,1,0,0,rectangle,78,39,1,0,0,6,6,1,1.549595,7,-5,1,0,0,0,139,139,104,1,response1disk_3,rectangle,,,,,,,,,,,,,,,,,,,
,,,,,,,,,,,,,,,,,,,,,,,,,,,,,,,,,,,,,,,,,,,5fd200f17bdf7823f5b3d5e8,5ff3a3cf4e54095081c164d4,2021-01-05_00h25.14.082,Colour_Similarity_Experiment_v1,2020.1.2,Win32,60,5ff3a352adaa099f7659f8cc,,,,,,,,,,,,,,,,,,,,PF,,,,,,,,5,1.66768,,,,,,,,,,,,,,,,,,,,,,,,,,,,1,73,-39,1,0,0,response3disk,8,141,13,-6,1,0,0,rectangle,13,-6,1,0,0,6,6,0,0.000505,13,-6,1,0,0,0,140,140,65,1,,,,,,,,,,,,,,,,,,,,,
,,,,,,,,,,,,,,,,,,,,,,,,,,,,,,,,,,,,,,,,,,,5fd200f17bdf7823f5b3d5e8,5ff3a3cf4e54095081c164d4,2021-01-05_00h25.14.082,Colour_Similarity_Experiment_v1,2020.1.2,Win32,60,5ff3a352adaa099f7659f8cc,,,,,,,,,,,,,,,,,,,,FF,,,,,,,,5,1.81675,,,,,,,,,,,,,,,,,,,,,,,,,,,,7,93,-43,1,0,0,response3disk,6,142,24,-1,1,0,0,rectangle,24,-1,1,0,0,6,7,0,0.00059,24,-1,1,0,0,0,141,141,31,1,,,,,,,,,,,,,,,,,,,,,
,,,,,,,,,,,,,,,,,,,,,,,,,,,,,,,,,,,,,,,,,,,5fd200f17bdf7823f5b3d5e8,5ff3a3cf4e54095081c164d4,2021-01-05_00h25.14.082,Colour_Similarity_Experiment_v1,2020.1.2,Win32,60,5ff3a352adaa099f7659f8cc,,,,,,,,,,,,,,,,,,,,PF,,,,,,,,6,1.933325,,,,,,,,,,,,,,,,,,,,,,,,,,,,9,79,38,1,0,0,response1disk,7,143,16,6,1,0,0,rectangle,16,6,1,0,0,6,3,0,0.00047,16,6,1,0,0,0,142,142,121,1,,,,,,,,,,,,,,,,,,,,,
,,,,,,,,,,,,,,,,,,,,,,,,,,,,,,,,,,,,,,,,,,,5fd200f17bdf7823f5b3d5e8,5ff3a3cf4e54095081c164d4,2021-01-05_00h25.14.082,Colour_Similarity_Experiment_v1,2020.1.2,Win32,60,5ff3a352adaa099f7659f8cc,,,,,,,,,,,,,,,,,,,,FF,,,,,,,,6,2.048555,,,,,,,,,,,,,,,,,,,,,,,,,,,,2,67,48,1,0,0,response1disk,8,144,20,11,1,0,0,rectangle,20,11,1,0,0,6,1,0,0.000555,20,11,1,0,0,0,143,143,62,1,,,,,,,,,,,,,,,,,,,,,
,,,,,,,,,,,,,,,,,,,,,,,,,,,,,,,,,,,,,,,,,,,5fd200f17bdf7823f5b3d5e8,5ff3a3cf4e54095081c164d4,2021-01-05_00h25.14.082,Colour_Similarity_Experiment_v1,2020.1.2,Win32,60,5ff3a352adaa099f7659f8cc,,,,,,,,,,,,,,,,,,,,FF,,,,,,,,7,3.76536,,,,,,,,,,,,,,,,,,,,,,,,,,,,6,49,83,1,0,0,response1disk,3,145,-6,13,1,0,0,rectangle,-6,13,1,0,0,6,7,0,0.00062,-6,13,1,0,0,0,144,144,21,1,,,,,,,,,,,,,,,,,,,,,
,,,,,,,,,,,,,,,,,,,,,,,,,,,,,,,,,,,,,,,,,,,5fd200f17bdf7823f5b3d5e8,5ff3a3cf4e54095081c164d4,2021-01-05_00h25.14.082,Colour_Similarity_Experiment_v1,2020.1.2,Win32,60,5ff3a352adaa099f7659f8cc,,,,,,,,,,,,,,,,,,,,FF,,,,,,,,6,1.41662,,,,,,,,,,,,,,,,,,,,,,,,,,,,9,67,37,1,0,0,response1disk,8,146,12,0,1,0,0,rectangle,12,0,1,0,0,6,3,0,0.000535,12,0,1,0,0,0,145,145,6,1,,,,,,,,,,,,,,,,,,,,,
,,,,,,,,,,,,,,,,,,,,,,,,,,,,,,,,,,,,,,,,,,,5fd200f17bdf7823f5b3d5e8,5ff3a3cf4e54095081c164d4,2021-01-05_00h25.14.082,Colour_Similarity_Experiment_v1,2020.1.2,Win32,60,5ff3a352adaa099f7659f8cc,,,,,,,,,,,,,,,,,,,,FF,,,,,,,,6,2.032945,,,,,,,,,,,,,,,,,,,,,,,,,,,,2,55,30,1,0,0,response1disk,6,147,17,8,1,0,0,rectangle,17,8,1,0,0,6,3,0,0.00048,17,8,1,0,0,0,146,146,40,1,,,,,,,,,,,,,,,,,,,,,
,,,,,,,,,,,,,,,,,,,,,,,,,,,,,,,,,,,,,,,,,,,5fd200f17bdf7823f5b3d5e8,5ff3a3cf4e54095081c164d4,2021-01-05_00h25.14.082,Colour_Similarity_Experiment_v1,2020.1.2,Win32,60,5ff3a352adaa099f7659f8cc,,,,,,,,,,,,,,,,,,,,PF,,,,,,,,6,1.283235,,,,,,,,,,,,,,,,,,,,,,,,,,,,2,62,35,1,0,0,response1disk,3,148,-1,-1,1,0,0,rectangle,-1,-1,1,0,0,6,3,0,0.000445,-1,-1,1,0,0,0,147,147,69,1,,,,,,,,,,,,,,,,,,,,,
,,,,,,,,,,,,,,,,,,,,,,,,,,,,,,,,,,,,,,,,,,,5fd200f17bdf7823f5b3d5e8,5ff3a3cf4e54095081c164d4,2021-01-05_00h25.14.082,Colour_Similarity_Experiment_v1,2020.1.2,Win32,60,5ff3a352adaa099f7659f8cc,,,,,,,,,,,,,,,,,,,,PF,,,,,,,,5,1.627755,,,,,,,,,,,,,,,,,,,,,,,,,,,,9,53,-19,1,0,0,response3disk,9,149,1,8,1,0,0,rectangle,1,8,1,0,0,6,5,0,0.00102,1,8,1,0,0,0,148,148,106,1,,,,,,,,,,,,,,,,,,,,,
,,,,,,,,,,,,,,,,,,,,,,,,,,,,,,,,,,,,,,,,,,,5fd200f17bdf7823f5b3d5e8,5ff3a3cf4e54095081c164d4,2021-01-05_00h25.14.082,Colour_Similarity_Experiment_v1,2020.1.2,Win32,60,5ff3a352adaa099f7659f8cc,,,,,,,,,,,,,,,,,,,,PF,,,,,,,,7,0.884035,,,,,,,,,,,,,,,,,,,,,,,,,,,,7,46,79,1,0,0,response1disk,1,150,1,3,1,0,0,rectangle,1,3,1,0,0,6,7,0,0.000455,1,3,1,0,0,0,149,149,53,1,,,,,,,,,,,,,,,,,,,,,
,,,,,,,,,,,,,,,,,,,,,,,,,,,,,,,,,,,,,,,,,,,5fd200f17bdf7823f5b3d5e8,5ff3a3cf4e54095081c164d4,2021-01-05_00h25.14.082,Colour_Similarity_Experiment_v1,2020.1.2,Win32,60,5ff3a352adaa099f7659f8cc,,,,,,,,,,,,,,,,,,,,FF,,,,,,,,6,1.427405,,,,,,,,,,,,,,,,,,,,,,,,,,,,8,67,34,1,0,0,response1disk,1,151,13,-3,1,0,0,rectangle,13,-3,1,0,0,6,0,0,0.00036,13,-3,1,0,0,0,150,150,20,1,,,,,,,,,,,,,,,,,,,,,
,,,,,,,,,,,,,,,,,,,,,,,,,,,,,,,,,,,,,,,,,,,5fd200f17bdf7823f5b3d5e8,5ff3a3cf4e54095081c164d4,2021-01-05_00h25.14.082,Colour_Similarity_Experiment_v1,2020.1.2,Win32,60,5ff3a352adaa099f7659f8cc,,,,,,,,,,,,,,,,,,,,FF,,,,,,,,6,1.89397,,,,,,,,,,,,,,,,,,,,,,,,,,,,2,68,40,1,0,0,response1disk,1,152,-6,-11,1,0,0,rectangle,-6,-11,1,0,0,6,2,0,0.000445,-6,-11,1,0,0,0,151,151,85,1,,,,,,,,,,,,,,,,,,,,,
,,,,,,,,,,,,,,,,,,,,,,,,,,,,,,,,,,,,,,,,,,,5fd200f17bdf7823f5b3d5e8,5ff3a3cf4e54095081c164d4,2021-01-05_00h25.14.082,Colour_Similarity_Experiment_v1,2020.1.2,Win32,60,5ff3a352adaa099f7659f8cc,,,,,,,,,,,,,,,,,,,,FF,,,,,,,,6,0.84622,,,,,,,,,,,,,,,,,,,,,,,,,,,,8,79,44,1,0,0,response1disk,5,153,15,6,1,0,0,rectangle,15,6,1,0,0,6,2,0,0.00053,15,6,1,0,0,0,152,152,152,1,,,,,,,,,,,,,,,,,,,,,
,,,,,,,,,,,,,,,,,,,,,,,,,,,,,,,,,,,,,,,,,,,5fd200f17bdf7823f5b3d5e8,5ff3a3cf4e54095081c164d4,2021-01-05_00h25.14.082,Colour_Similarity_Experiment_v1,2020.1.2,Win32,60,5ff3a352adaa099f7659f8cc,,,,,,,,,,,,,,,,,,,,PF,,,,,,,,4,3.46537,,,,,,,,,,,,,,,,,,,,,,,,,,,,5,32,-91,1,0,0,response3disk,3,154,-3,3,1,0,0,rectangle,-3,3,1,0,0,6,5,0,0.000695,-3,3,1,0,0,0,153,153,109,1,,,,,,,,,,,,,,,,,,,,,
,,,,,,,,,,,,,,,,,,,,,,,,,,,,,,,,,,,,,,,,,,,5fd200f17bdf7823f5b3d5e8,5ff3a3cf4e54095081c164d4,2021-01-05_00h25.14.082,Colour_Similarity_Experiment_v1,2020.1.2,Win32,60,5ff3a352adaa099f7659f8cc,,,,,,,,,,,,,,,,,,,,PF,,,,,,,,4,1.033875,,,,,,,,,,,,,,,,,,,,,,,,,,,,8,34,-81,1,0,0,response3disk,5,155,10,6,1,0,0,rectangle,10,6,1,0,0,6,2,0,0.000445,10,6,1,0,0,0,154,154,98,1,,,,,,,,,,,,,,,,,,,,,
,,,,,,,,,,,,,,,,,,,,,,,,,,,,,,,,,,,,,,,,,,,5fd200f17bdf7823f5b3d5e8,5ff3a3cf4e54095081c164d4,2021-01-05_00h25.14.082,Colour_Similarity_Experiment_v1,2020.1.2,Win32,60,5ff3a352adaa099f7659f8cc,,,,,,,,,,,,,,,,,,,,PF,,,,,,,,5,1.24572,,,,,,,,,,,,,,,,,,,,,,,,,,,,2,89,-39,1,0,0,response3disk,8,156,9,-1,1,0,0,rectangle,9,-1,1,0,0,6,6,0,0.00081,9,-1,1,0,0,0,155,155,52,1,,,,,,,,,,,,,,,,,,,,,
,,,,,,,,,,,,,,,,,,,,,,,,,,,,,,,,,,,,,,,,,,,5fd200f17bdf7823f5b3d5e8,5ff3a3cf4e54095081c164d4,2021-01-05_00h25.14.082,Colour_Similarity_Experiment_v1,2020.1.2,Win32,60,5ff3a352adaa099f7659f8cc,,,,,,,,,,,,,,,,,,,,PF,,,,,,,,3,2.116575,,,,,,,,,,,,,,,,,,,,,,,,,,,,6,-48,-79,1,0,0,response5disk,3,157,-11,5,1,0,0,rectangle,-11,5,1,0,0,6,2,0,0.000445,-11,5,1,0,0,0,156,156,26,1,,,,,,,,,,,,,,,,,,,,,
,,,,,,,,,,,,,,,,,,,,,,,,,,,,,,,,,,,,,,,,,,,5fd200f17bdf7823f5b3d5e8,5ff3a3cf4e54095081c164d4,2021-01-05_00h25.14.082,Colour_Similarity_Experiment_v1,2020.1.2,Win32,60,5ff3a352adaa099f7659f8cc,,,,,,,,,,,,,,,,,,,,PF,,,,,,,,6,1.668275,,,,,,,,,,,,,,,,,,,,,,,,,,,,1,52,34,1,0,0,response1disk,5,158,8,-6,1,0,0,rectangle,8,-6,1,0,0,6,2,0,0.000655,8,-6,1,0,0,0,157,157,28,1,,,,,,,,,,,,,,,,,,,,,
,,,,,,,,,,,,,,,,,,,,,,,,,,,,,,,,,,,,,,,,,,,5fd200f17bdf7823f5b3d5e8,5ff3a3cf4e54095081c164d4,2021-01-05_00h25.14.082,Colour_Similarity_Experiment_v1,2020.1.2,Win32,60,5ff3a352adaa099f7659f8cc,,,,,,,,,,,,,,,,,,,,FF,,,,,,,,2,2.386255,,,,,,,,,,,,,,,,,,,,,,,,,,,,5,-55,-34,1,0,0,response5disk,3,159,-9,8,1,0,0,rectangle,-9,8,1,0,0,6,4,0,0.000405,-9,8,1,0,0,0,158,158,25,1,,,,,,,,,,,,,,,,,,,,,
,,,,,,,,,,,,,,,,,,,,,,,,,,,,,,,,,,,,,,,,,,,5fd200f17bdf7823f5b3d5e8,5ff3a3cf4e54095081c164d4,2021-01-05_00h25.14.082,Colour_Similarity_Experiment_v1,2020.1.2,Win32,60,5ff3a352adaa099f7659f8cc,,,,,,,,,,,,,,,,,,,,PF,,,,,,,,5,1.90072,,,,,,,,,,,,,,,,,,,,,,,,,,,,9,84,-25,1,0,0,response3disk,2,160,7,1,1,0,0,rectangle,7,1,1,0,0,6,5,0,0.00037,7,1,1,0,0,0,159,159,157,1,,,,,,,,,,,,,,,,,,,,,
,,,,,,,,,,,,,,,,,,,,,,,,,,,,,,,,,,,,,,,,,,,5fd200f17bdf7823f5b3d5e8,5ff3a3cf4e54095081c164d4,2021-01-05_00h25.14.082,Colour_Similarity_Experiment_v1,2020.1.2,Win32,60,5ff3a352adaa099f7659f8cc,,,,,,,,,,,,,,,,,,,,PF,,,,,,,,5,1.616235,,,,,,,,,,,,,,,,,,,,,,,,,,,,2,64,-27,1,0,0,response3disk,5,161,-14,2,1,0,0,rectangle,-14,2,1,0,0,6,3,0,0.00053,-14,2,1,0,0,0,160,160,147,1,,,,,,,,,,,,,,,,,,,,,
,,,,,,,,,,,,,,,,,,,,,,,,,,,,,,,,,,,,,,,,,,,5fd200f17bdf7823f5b3d5e8,5ff3a3cf4e54095081c164d4,2021-01-05_00h25.14.082,Colour_Similarity_Experiment_v1,2020.1.2,Win32,60,5ff3a352adaa099f7659f8cc,,,,,,,,,,,,,,,,,,,,FF,,,,,,,,4,2.169905,,,,,,,,,,,,,,,,,,,,,,,,,,,,5,37,-90,1,0,0,response3disk,7,162,18,1,1,0,0,rectangle,18,1,1,0,0,6,4,0,0.00067,18,1,1,0,0,0,161,161,7,1,,,,,,,,,,,,,,,,,,,,,
,,,,,,,,,,,,,,,,,,,,,,,,,,,,,,,,,,,,,,,,,,,5fd200f17bdf7823f5b3d5e8,5ff3a3cf4e54095081c164d4,2021-01-05_00h25.14.082,Colour_Similarity_Experiment_v1,2020.1.2,Win32,60,5ff3a352adaa099f7659f8cc,,,,,,,,,,,,,,,,,,,,,,,,,,,,,,,,,,,,,,,,,,,,,,,,,,,,,,,,,,,,,,,,,,,,,,,,,,,,,,,,,,,,,,,,,,,,,0,0,0,0,1,,,,,,,,,,,,,,
,,,,,,,,,,,,,,,,,,,,,,,,,,,,,,,,,,,,,,,,,,,5fd200f17bdf7823f5b3d5e8,5ff3a3cf4e54095081c164d4,2021-01-05_00h25.14.082,Colour_Similarity_Experiment_v1,2020.1.2,Win32,60,5ff3a352adaa099f7659f8cc,,,,,,,,,,,,,,,,,,,,PF,,,,,,,,0,1.594325,,,,,,,,,,,,,,,,,,,,,,,,,,,,6,-32,63,1,0,0,response7disk,7,163,-17,9,1,0,0,rectangle,-17,9,1,0,0,6,5,0,0.000745,-17,9,1,0,0,0,0,0,50,1,,,,,,,,,,,,,,,,,,,,,
,,,,,,,,,,,,,,,,,,,,,,,,,,,,,,,,,,,,,,,,,,,5fd200f17bdf7823f5b3d5e8,5ff3a3cf4e54095081c164d4,2021-01-05_00h25.14.082,Colour_Similarity_Experiment_v1,2020.1.2,Win32,60,5ff3a352adaa099f7659f8cc,,,,,,,,,,,,,,,,,,,,FF,,,,,,,,5,1.25084,,,,,,,,,,,,,,,,,,,,,,,,,,,,7,78,-32,1,0,0,response3disk,3,164,19,-2,1,0,0,rectangle,19,-2,1,0,0,6,1,0,0.002335,19,-2,1,0,0,0,1,1,73,1,,,,,,,,,,,,,,,,,,,,,
,,,,,,,,,,,,,,,,,,,,,,,,,,,,,,,,,,,,,,,,,,,5fd200f17bdf7823f5b3d5e8,5ff3a3cf4e54095081c164d4,2021-01-05_00h25.14.082,Colour_Similarity_Experiment_v1,2020.1.2,Win32,60,5ff3a352adaa099f7659f8cc,,,,,,,,,,,,,,,,,,,,FF,,,,,,,,6,0.801505,,,,,,,,,,,,,,,,,,,,,,,,,,,,9,56,35,1,0,0,response1disk,5,165,-2,3,1,0,0,rectangle,-2,3,1,0,0,6,7,0,0.000455,-2,3,1,0,0,0,2,2,128,1,,,,,,,,,,,,,,,,,,,,,
,,,,,,,,,,,,,,,,,,,,,,,,,,,,,,,,,,,,,,,,,,,5fd200f17bdf7823f5b3d5e8,5ff3a3cf4e54095081c164d4,2021-01-05_00h25.14.082,Colour_Similarity_Experiment_v1,2020.1.2,Win32,60,5ff3a352adaa099f7659f8cc,,,,,,,,,,,,,,,,,,,,PF,,,,,,,,1,1.7659,,,,,,,,,,,,,,,,,,,,,,,,,,,,3,-74,36,1,0,0,response7disk,3,166,-26,0,1,0,0,rectangle,-26,0,1,0,0,6,6,0,0.00073,-26,0,1,0,0,0,3,3,4,1,,,,,,,,,,,,,,,,,,,,,
,,,,,,,,,,,,,,,,,,,,,,,,,,,,,,,,,,,,,,,,,,,5fd200f17bdf7823f5b3d5e8,5ff3a3cf4e54095081c164d4,2021-01-05_00h25.14.082,Colour_Similarity_Experiment_v1,2020.1.2,Win32,60,5ff3a352adaa099f7659f8cc,,,,,,,,,,,,,,,,,,,,PF,,,,,,,,6,1.4173,,,,,,,,,,,,,,,,,,,,,,,,,,,,8,74,34,1,0,0,response1disk,3,167,2,0,1,0,0,rectangle,2,0,1,0,0,6,6,0,0.000385,2,0,1,0,0,0,4,4,71,1,,,,,,,,,,,,,,,,,,,,,
,,,,,,,,,,,,,,,,,,,,,,,,,,,,,,,,,,,,,,,,,,,5fd200f17bdf7823f5b3d5e8,5ff3a3cf4e54095081c164d4,2021-01-05_00h25.14.082,Colour_Similarity_Experiment_v1,2020.1.2,Win32,60,5ff3a352adaa099f7659f8cc,,,,,,,,,,,,,,,,,,,,FF,,,,,,,,7,2.016145,,,,,,,,,,,,,,,,,,,,,,,,,,,,5,29,73,1,0,0,response1disk,1,168,0,15,1,0,0,rectangle,0,15,1,0,0,6,4,0,0.000445,0,15,1,0,0,0,5,5,131,1,,,,,,,,,,,,,,,,,,,,,
,,,,,,,,,,,,,,,,,,,,,,,,,,,,,,,,,,,,,,,,,,,5fd200f17bdf7823f5b3d5e8,5ff3a3cf4e54095081c164d4,2021-01-05_00h25.14.082,Colour_Similarity_Experiment_v1,2020.1.2,Win32,60,5ff3a352adaa099f7659f8cc,,,,,,,,,,,,,,,,,,,,PF,,,,,,,,7,1.370095,,,,,,,,,,,,,,,,,,,,,,,,,,,,6,47,71,1,0,0,response1disk,3,169,16,2,1,0,0,rectangle,16,2,1,0,0,6,5,0,0.0008,16,2,1,0,0,0,6,6,26,1,,,,,,,,,,,,,,,,,,,,,
,,,,,,,,,,,,,,,,,,,,,,,,,,,,,,,,,,,,,,,,,,,5fd200f17bdf7823f5b3d5e8,5ff3a3cf4e54095081c164d4,2021-01-05_00h25.14.082,Colour_Similarity_Experiment_v1,2020.1.2,Win32,60,5ff3a352adaa099f7659f8cc,,,,,,,,,,,,,,,,,,,,PF,,,,,,,,6,4.382235,,,,,,,,,,,,,,,,,,,,,,,,,,,,1,81,43,1,0,0,response1disk,8,170,-8,6,1,0,0,rectangle,-8,6,1,0,0,6,2,0,0.00043,-8,6,1,0,0,0,7,7,65,1,,,,,,,,,,,,,,,,,,,,,
,,,,,,,,,,,,,,,,,,,,,,,,,,,,,,,,,,,,,,,,,,,5fd200f17bdf7823f5b3d5e8,5ff3a3cf4e54095081c164d4,2021-01-05_00h25.14.082,Colour_Similarity_Experiment_v1,2020.1.2,Win32,60,5ff3a352adaa099f7659f8cc,,,,,,,,,,,,,,,,,,,,PF,,,,,,,,6,1.700705,,,,,,,,,,,,,,,,,,,,,,,,,,,,4,76,47,1,0,0,response1disk,5,171,-12,2,1,0,0,rectangle,-12,2,1,0,0,6,1,0,0.00053,-12,2,1,0,0,0,8,8,49,1,,,,,,,,,,,,,,,,,,,,,
,,,,,,,,,,,,,,,,,,,,,,,,,,,,,,,,,,,,,,,,,,,5fd200f17bdf7823f5b3d5e8,5ff3a3cf4e54095081c164d4,2021-01-05_00h25.14.082,Colour_Similarity_Experiment_v1,2020.1.2,Win32,60,5ff3a352adaa099f7659f8cc,,,,,,,,,,,,,,,,,,,,PF,,,,,,,,5,1.133355,,,,,,,,,,,,,,,,,,,,,,,,,,,,2,85,-21,1,0,0,response3disk,7,172,-2,7,1,0,0,rectangle,-2,7,1,0,0,6,5,0,0.00048,-2,7,1,0,0,0,9,9,107,1,,,,,,,,,,,,,,,,,,,,,
,,,,,,,,,,,,,,,,,,,,,,,,,,,,,,,,,,,,,,,,,,,5fd200f17bdf7823f5b3d5e8,5ff3a3cf4e54095081c164d4,2021-01-05_00h25.14.082,Colour_Similarity_Experiment_v1,2020.1.2,Win32,60,5ff3a352adaa099f7659f8cc,,,,,,,,,,,,,,,,,,,,PF,,,,,,,,7,1.355435,,,,,,,,,,,,,,,,,,,,,,,,,,,,7,40,64,1,0,0,response1disk,4,173,1,7,1,0,0,rectangle,1,7,1,0,0,6,5,0,0.000435,1,7,1,0,0,0,10,10,43,1,,,,,,,,,,,,,,,,,,,,,
,,,,,,,,,,,,,,,,,,,,,,,,,,,,,,,,,,,,,,,,,,,5fd200f17bdf7823f5b3d5e8,5ff3a3cf4e54095081c164d4,2021-01-05_00h25.14.082,Colour_Similarity_Experiment_v1,2020.1.2,Win32,60,5ff3a352adaa099f7659f8cc,,,,,,,,,,,,,,,,,,,,FF,,,,,,,,1,1.014115,,,,,,,,,,,,,,,,,,,,,,,,,,,,9,-71,45,1,0,0,response7disk,9,174,-19,-14,1,0,0,rectangle,-19,-14,1,0,0,6,3,0,0.00075,-19,-14,1,0,0,0,11,11,17,1,,,,,,,,,,,,,,,,,,,,,
,,,,,,,,,,,,,,,,,,,,,,,,,,,,,,,,,,,,,,,,,,,5fd200f17bdf7823f5b3d5e8,5ff3a3cf4e54095081c164d4,2021-01-05_00h25.14.082,Colour_Similarity_Experiment_v1,2020.1.2,Win32,60,5ff3a352adaa099f7659f8cc,,,,,,,,,,,,,,,,,,,,PF,,,,,,,,6,2.400455,,,,,,,,,,,,,,,,,,,,,,,,,,,,7,70,28,1,0,0,response1disk,3,175,20,3,1,0,0,rectangle,20,3,1,0,0,6,0,0,0.00066,20,3,1,0,0,0,12,12,81,1,,,,,,,,,,,,,,,,,,,,,
,,,,,,,,,,,,,,,,,,,,,,,,,,,,,,,,,,,,,,,,,,,5fd200f17bdf7823f5b3d5e8,5ff3a3cf4e54095081c164d4,2021-01-05_00h25.14.082,Colour_Similarity_Experiment_v1,2020.1.2,Win32,60,5ff3a352adaa099f7659f8cc,,,,,,,,,,,,,,,,,,,,FF,,,,,,,,6,1.09396,,,,,,,,,,,,,,,,,,,,,,,,,,,,3,73,33,1,0,0,response1disk,1,176,-8,0,1,0,0,rectangle,-8,0,1,0,0,6,3,0,0.00041,-8,0,1,0,0,0,13,13,125,1,,,,,,,,,,,,,,,,,,,,,
,,,,,,,,,,,,,,,,,,,,,,,,,,,,,,,,,,,,,,,,,,,5fd200f17bdf7823f5b3d5e8,5ff3a3cf4e54095081c164d4,2021-01-05_00h25.14.082,Colour_Similarity_Experiment_v1,2020.1.2,Win32,60,5ff3a352adaa099f7659f8cc,,,,,,,,,,,,,,,,,,,,PF,,,,,,,,3,1.416945,,,,,,,,,,,,,,,,,,,,,,,,,,,,3,-36,-66,1,0,0,response5disk,5,177,-14,-3,1,0,0,rectangle,-14,-3,1,0,0,6,3,0,0.00081,-14,-3,1,0,0,0,14,14,66,1,,,,,,,,,,,,,,,,,,,,,
,,,,,,,,,,,,,,,,,,,,,,,,,,,,,,,,,,,,,,,,,,,5fd200f17bdf7823f5b3d5e8,5ff3a3cf4e54095081c164d4,2021-01-05_00h25.14.082,Colour_Similarity_Experiment_v1,2020.1.2,Win32,60,5ff3a352adaa099f7659f8cc,,,,,,,,,,,,,,,,,,,,FF,,,,,,,,0,1.100425,,,,,,,,,,,,,,,,,,,,,,,,,,,,3,-37,78,1,0,0,response7disk,3,178,-17,-6,1,0,0,rectangle,-17,-6,1,0,0,6,5,0,0.000535,-17,-6,1,0,0,0,15,15,68,1,,,,,,,,,,,,,,,,,,,,,
,,,,,,,,,,,,,,,,,,,,,,,,,,,,,,,,,,,,,,,,,,,5fd200f17bdf7823f5b3d5e8,5ff3a3cf4e54095081c164d4,2021-01-05_00h25.14.082,Colour_Similarity_Experiment_v1,2020.1.2,Win32,60,5ff3a352adaa099f7659f8cc,,,,,,,,,,,,,,,,,,,,PF,,,,,,,,7,1.016205,,,,,,,,,,,,,,,,,,,,,,,,,,,,9,37,74,1,0,0,response1disk,4,179,3,2,1,0,0,rectangle,3,2,1,0,0,6,4,0,0.00043,3,2,1,0,0,0,16,16,114,1,,,,,,,,,,,,,,,,,,,,,
,,,,,,,,,,,,,,,,,,,,,,,,,,,,,,,,,,,,,,,,,,,5fd200f17bdf7823f5b3d5e8,5ff3a3cf4e54095081c164d4,2021-01-05_00h25.14.082,Colour_Similarity_Experiment_v1,2020.1.2,Win32,60,5ff3a352adaa099f7659f8cc,,,,,,,,,,,,,,,,,,,,FF,,,,,,,,7,1.117045,,,,,,,,,,,,,,,,,,,,,,,,,,,,1,33,65,1,0,0,response1disk,4,180,7,6,1,0,0,rectangle,7,6,1,0,0,6,6,0,0.000465,7,6,1,0,0,0,17,17,135,1,,,,,,,,,,,,,,,,,,,,,
,,,,,,,,,,,,,,,,,,,,,,,,,,,,,,,,,,,,,,,,,,,5fd200f17bdf7823f5b3d5e8,5ff3a3cf4e54095081c164d4,2021-01-05_00h25.14.082,Colour_Similarity_Experiment_v1,2020.1.2,Win32,60,5ff3a352adaa099f7659f8cc,,,,,,,,,,,,,,,,,,,,FF,,,,,,,,6,0.93406,,,,,,,,,,,,,,,,,,,,,,,,,,,,3,48,38,1,0,0,response1disk,2,181,4,5,1,0,0,rectangle,4,5,1,0,0,6,4,0,0.00054,4,5,1,0,0,0,18,18,93,1,,,,,,,,,,,,,,,,,,,,,
,,,,,,,,,,,,,,,,,,,,,,,,,,,,,,,,,,,,,,,,,,,5fd200f17bdf7823f5b3d5e8,5ff3a3cf4e54095081c164d4,2021-01-05_00h25.14.082,Colour_Similarity_Experiment_v1,2020.1.2,Win32,60,5ff3a352adaa099f7659f8cc,,,,,,,,,,,,,,,,,,,,PF,,,,,,,,0,1.37876,,,,,,,,,,,,,,,,,,,,,,,,,,,,4,-38,86,1,0,0,response7disk,4,182,-6,-3,1,0,0,rectangle,-6,-3,1,0,0,6,6,0,0.00046,-6,-3,1,0,0,0,19,19,70,1,,,,,,,,,,,,,,,,,,,,,
,,,,,,,,,,,,,,,,,,,,,,,,,,,,,,,,,,,,,,,,,,,5fd200f17bdf7823f5b3d5e8,5ff3a3cf4e54095081c164d4,2021-01-05_00h25.14.082,Colour_Similarity_Experiment_v1,2020.1.2,Win32,60,5ff3a352adaa099f7659f8cc,,,,,,,,,,,,,,,,,,,,PF,,,,,,,,6,1.698905,,,,,,,,,,,,,,,,,,,,,,,,,,,,6,40,38,1,0,0,response1disk,9,183,-5,2,1,0,0,rectangle,-5,2,1,0,0,6,6,0,0.00042,-5,2,1,0,0,0,20,20,45,1,,,,,,,,,,,,,,,,,,,,,
,,,,,,,,,,,,,,,,,,,,,,,,,,,,,,,,,,,,,,,,,,,5fd200f17bdf7823f5b3d5e8,5ff3a3cf4e54095081c164d4,2021-01-05_00h25.14.082,Colour_Similarity_Experiment_v1,2020.1.2,Win32,60,5ff3a352adaa099f7659f8cc,,,,,,,,,,,,,,,,,,,,FF,,,,,,,,4,1.35022,,,,,,,,,,,,,,,,,,,,,,,,,,,,8,33,-68,1,0,0,response3disk,7,184,4,4,1,0,0,rectangle,4,4,1,0,0,6,6,0,0.00056,4,4,1,0,0,0,21,21,86,1,,,,,,,,,,,,,,,,,,,,,
,,,,,,,,,,,,,,,,,,,,,,,,,,,,,,,,,,,,,,,,,,,5fd200f17bdf7823f5b3d5e8,5ff3a3cf4e54095081c164d4,2021-01-05_00h25.14.082,Colour_Similarity_Experiment_v1,2020.1.2,Win32,60,5ff3a352adaa099f7659f8cc,,,,,,,,,,,,,,,,,,,,PF,,,,,,,,6,1.631685,,,,,,,,,,,,,,,,,,,,,,,,,,,,3,71,35,1,0,0,response1disk,7,185,28,-6,1,0,0,rectangle,28,-6,1,0,0,6,3,0,0.00064,28,-6,1,0,0,0,22,22,41,1,,,,,,,,,,,,,,,,,,,,,
,,,,,,,,,,,,,,,,,,,,,,,,,,,,,,,,,,,,,,,,,,,5fd200f17bdf7823f5b3d5e8,5ff3a3cf4e54095081c164d4,2021-01-05_00h25.14.082,Colour_Similarity_Experiment_v1,2020.1.2,Win32,60,5ff3a352adaa099f7659f8cc,,,,,,,,,,,,,,,,,,,,FF,,,,,,,,2,1.397085,,,,,,,,,,,,,,,,,,,,,,,,,,,,1,-65,-29,1,0,0,response5disk,9,186,-12,9,1,0,0,rectangle,-12,9,1,0,0,6,3,0,0.000495,-12,9,1,0,0,0,23,23,123,1,,,,,,,,,,,,,,,,,,,,,
,,,,,,,,,,,,,,,,,,,,,,,,,,,,,,,,,,,,,,,,,,,5fd200f17bdf7823f5b3d5e8,5ff3a3cf4e54095081c164d4,2021-01-05_00h25.14.082,Colour_Similarity_Experiment_v1,2020.1.2,Win32,60,5ff3a352adaa099f7659f8cc,,,,,,,,,,,,,,,,,,,,PF,,,,,,,,5,3.73116,,,,,,,,,,,,,,,,,,,,,,,,,,,,2,91,-46,1,0,0,response3disk,4,187,3,4,1,0,0,rectangle,3,4,1,0,0,6,1,0,0.00057,3,4,1,0,0,0,24,24,127,1,,,,,,,,,,,,,,,,,,,,,
,,,,,,,,,,,,,,,,,,,,,,,,,,,,,,,,,,,,,,,,,,,5fd200f17bdf7823f5b3d5e8,5ff3a3cf4e54095081c164d4,2021-01-05_00h25.14.082,Colour_Similarity_Experiment_v1,2020.1.2,Win32,60,5ff3a352adaa099f7659f8cc,,,,,,,,,,,,,,,,,,,,FF,,,,,,,,6,0.86593,,,,,,,,,,,,,,,,,,,,,,,,,,,,4,70,53,1,0,0,response1disk,7,188,8,11,1,0,0,rectangle,8,11,1,0,0,6,1,0,0.00045,8,11,1,0,0,0,25,25,87,1,,,,,,,,,,,,,,,,,,,,,
,,,,,,,,,,,,,,,,,,,,,,,,,,,,,,,,,,,,,,,,,,,5fd200f17bdf7823f5b3d5e8,5ff3a3cf4e54095081c164d4,2021-01-05_00h25.14.082,Colour_Similarity_Experiment_v1,2020.1.2,Win32,60,5ff3a352adaa099f7659f8cc,,,,,,,,,,,,,,,,,,,,PF,,,,,,,,1,1.18968,,,,,,,,,,,,,,,,,,,,,,,,,,,,5,-76,26,1,0,0,response7disk,4,189,-32,-10,1,0,0,rectangle,-32,-10,1,0,0,6,6,0,0.000585,-32,-10,1,0,0,0,26,26,54,1,,,,,,,,,,,,,,,,,,,,,
,,,,,,,,,,,,,,,,,,,,,,,,,,,,,,,,,,,,,,,,,,,5fd200f17bdf7823f5b3d5e8,5ff3a3cf4e54095081c164d4,2021-01-05_00h25.14.082,Colour_Similarity_Experiment_v1,2020.1.2,Win32,60,5ff3a352adaa099f7659f8cc,,,,,,,,,,,,,,,,,,,,FF,,,,,,,,4,1.881755,,,,,,,,,,,,,,,,,,,,,,,,,,,,9,38,-76,1,0,0,response3disk,2,190,12,0,1,0,0,rectangle,-57,-55,1,0,0,6,3,1,2.252025,12,-1,1,0,0,0,27,27,11,1,response5disk_3,rectangle,,,,,,,,,,,,,,,,,,,
,,,,,,,,,,,,,,,,,,,,,,,,,,,,,,,,,,,,,,,,,,,5fd200f17bdf7823f5b3d5e8,5ff3a3cf4e54095081c164d4,2021-01-05_00h25.14.082,Colour_Similarity_Experiment_v1,2020.1.2,Win32,60,5ff3a352adaa099f7659f8cc,,,,,,,,,,,,,,,,,,,,PF,,,,,,,,7,0.967255,,,,,,,,,,,,,,,,,,,,,,,,,,,,6,49,75,1,0,0,response1disk,1,191,8,0,1,0,0,rectangle,8,0,1,0,0,6,6,0,0.000425,8,0,1,0,0,0,28,28,46,1,,,,,,,,,,,,,,,,,,,,,
,,,,,,,,,,,,,,,,,,,,,,,,,,,,,,,,,,,,,,,,,,,5fd200f17bdf7823f5b3d5e8,5ff3a3cf4e54095081c164d4,2021-01-05_00h25.14.082,Colour_Similarity_Experiment_v1,2020.1.2,Win32,60,5ff3a352adaa099f7659f8cc,,,,,,,,,,,,,,,,,,,,PF,,,,,,,,6,0.995025,,,,,,,,,,,,,,,,,,,,,,,,,,,,5,53,37,1,0,0,response1disk,1,192,3,4,1,0,0,rectangle,65,45,1,0,0,6,6,1,1.532095,9,-9,1,0,0,0,29,29,159,1,response1disk_3,rectangle,,,,,,,,,,,,,,,,,,,
,,,,,,,,,,,,,,,,,,,,,,,,,,,,,,,,,,,,,,,,,,,5fd200f17bdf7823f5b3d5e8,5ff3a3cf4e54095081c164d4,2021-01-05_00h25.14.082,Colour_Similarity_Experiment_v1,2020.1.2,Win32,60,5ff3a352adaa099f7659f8cc,,,,,,,,,,,,,,,,,,,,PF,,,,,,,,6,3.182405,,,,,,,,,,,,,,,,,,,,,,,,,,,,2,73,32,1,0,0,response1disk,8,193,12,5,1,0,0,rectangle,12,5,1,0,0,6,2,0,0.000425,12,5,1,0,0,0,30,30,52,1,,,,,,,,,,,,,,,,,,,,,
,,,,,,,,,,,,,,,,,,,,,,,,,,,,,,,,,,,,,,,,,,,5fd200f17bdf7823f5b3d5e8,5ff3a3cf4e54095081c164d4,2021-01-05_00h25.14.082,Colour_Similarity_Experiment_v1,2020.1.2,Win32,60,5ff3a352adaa099f7659f8cc,,,,,,,,,,,,,,,,,,,,PF,,,,,,,,6,1.01649,,,,,,,,,,,,,,,,,,,,,,,,,,,,8,74,31,1,0,0,response1disk,2,194,10,0,1,0,0,rectangle,10,0,1,0,0,6,4,0,0.000405,10,0,1,0,0,0,31,31,83,1,,,,,,,,,,,,,,,,,,,,,
,,,,,,,,,,,,,,,,,,,,,,,,,,,,,,,,,,,,,,,,,,,5fd200f17bdf7823f5b3d5e8,5ff3a3cf4e54095081c164d4,2021-01-05_00h25.14.082,Colour_Similarity_Experiment_v1,2020.1.2,Win32,60,5ff3a352adaa099f7659f8cc,,,,,,,,,,,,,,,,,,,,PF,,,,,,,,5,1.295585,,,,,,,,,,,,,,,,,,,,,,,,,,,,6,59,-43,1,0,0,response3disk,8,195,3,-1,1,0,0,rectangle,3,-1,1,0,0,6,4,0,0.00046,3,-1,1,0,0,0,32,32,64,1,,,,,,,,,,,,,,,,,,,,,
,,,,,,,,,,,,,,,,,,,,,,,,,,,,,,,,,,,,,,,,,,,5fd200f17bdf7823f5b3d5e8,5ff3a3cf4e54095081c164d4,2021-01-05_00h25.14.082,Colour_Similarity_Experiment_v1,2020.1.2,Win32,60,5ff3a352adaa099f7659f8cc,,,,,,,,,,,,,,,,,,,,PF,,,,,,,,4,1.23239,,,,,,,,,,,,,,,,,,,,,,,,,,,,6,19,-56,1,0,0,response3disk,5,196,-10,-1,1,0,0,rectangle,-10,-1,1,0,0,6,6,0,0.00045,-10,-1,1,0,0,0,33,33,59,1,,,,,,,,,,,,,,,,,,,,,
,,,,,,,,,,,,,,,,,,,,,,,,,,,,,,,,,,,,,,,,,,,5fd200f17bdf7823f5b3d5e8,5ff3a3cf4e54095081c164d4,2021-01-05_00h25.14.082,Colour_Similarity_Experiment_v1,2020.1.2,Win32,60,5ff3a352adaa099f7659f8cc,,,,,,,,,,,,,,,,,,,,PF,,,,,,,,4,1.083975,,,,,,,,,,,,,,,,,,,,,,,,,,,,6,25,-69,1,0,0,response3disk,6,197,-12,-1,1,0,0,rectangle,-12,-1,1,0,0,6,4,0,0.000455,-12,-1,1,0,0,0,34,34,0,1,,,,,,,,,,,,,,,,,,,,,
,,,,,,,,,,,,,,,,,,,,,,,,,,,,,,,,,,,,,,,,,,,5fd200f17bdf7823f5b3d5e8,5ff3a3cf4e54095081c164d4,2021-01-05_00h25.14.082,Colour_Similarity_Experiment_v1,2020.1.2,Win32,60,5ff3a352adaa099f7659f8cc,,,,,,,,,,,,,,,,,,,,PF,,,,,,,,6,3.648815,,,,,,,,,,,,,,,,,,,,,,,,,,,,8,55,34,1,0,0,response1disk,9,198,0,0,1,0,0,rectangle,0,0,1,0,0,6,7,0,0.0004,0,0,1,0,0,0,35,35,42,1,,,,,,,,,,,,,,,,,,,,,
,,,,,,,,,,,,,,,,,,,,,,,,,,,,,,,,,,,,,,,,,,,5fd200f17bdf7823f5b3d5e8,5ff3a3cf4e54095081c164d4,2021-01-05_00h25.14.082,Colour_Similarity_Experiment_v1,2020.1.2,Win32,60,5ff3a352adaa099f7659f8cc,,,,,,,,,,,,,,,,,,,,FF,,,,,,,,3,6.398355,,,,,,,,,,,,,,,,,,,,,,,,,,,,6,-27,-82,1,0,0,response5disk,8,199,6,6,1,0,0,rectangle,6,6,1,0,0,6,7,0,0.00042,6,6,1,0,0,0,36,36,133,1,,,,,,,,,,,,,,,,,,,,,
,,,,,,,,,,,,,,,,,,,,,,,,,,,,,,,,,,,,,,,,,,,5fd200f17bdf7823f5b3d5e8,5ff3a3cf4e54095081c164d4,2021-01-05_00h25.14.082,Colour_Similarity_Experiment_v1,2020.1.2,Win32,60,5ff3a352adaa099f7659f8cc,,,,,,,,,,,,,,,,,,,,FF,,,,,,,,4,1.28259,,,,,,,,,,,,,,,,,,,,,,,,,,,,5,46,-69,1,0,0,response3disk,7,200,13,1,1,0,0,rectangle,13,1,1,0,0,6,7,0,0.000395,13,1,1,0,0,0,37,37,7,1,,,,,,,,,,,,,,,,,,,,,
,,,,,,,,,,,,,,,,,,,,,,,,,,,,,,,,,,,,,,,,,,,5fd200f17bdf7823f5b3d5e8,5ff3a3cf4e54095081c164d4,2021-01-05_00h25.14.082,Colour_Similarity_Experiment_v1,2020.1.2,Win32,60,5ff3a352adaa099f7659f8cc,,,,,,,,,,,,,,,,,,,,FF,,,,,,,,6,2.266085,,,,,,,,,,,,,,,,,,,,,,,,,,,,5,68,30,1,0,0,response1disk,2,201,17,-2,1,0,0,rectangle,-68,-29,1,0,0,6,2,1,1.733475,4,-7,1,0,0,0,38,38,55,1,response5disk_3,rectangle,,,,,,,,,,,,,,,,,,,
,,,,,,,,,,,,,,,,,,,,,,,,,,,,,,,,,,,,,,,,,,,5fd200f17bdf7823f5b3d5e8,5ff3a3cf4e54095081c164d4,2021-01-05_00h25.14.082,Colour_Similarity_Experiment_v1,2020.1.2,Win32,60,5ff3a352adaa099f7659f8cc,,,,,,,,,,,,,,,,,,,,FF,,,,,,,,6,0.933605,,,,,,,,,,,,,,,,,,,,,,,,,,,,8,75,35,1,0,0,response1disk,2,202,-6,-6,1,0,0,rectangle,-6,-6,1,0,0,6,0,0,0.00042,-6,-6,1,0,0,0,39,39,22,1,,,,,,,,,,,,,,,,,,,,,
,,,,,,,,,,,,,,,,,,,,,,,,,,,,,,,,,,,,,,,,,,,5fd200f17bdf7823f5b3d5e8,5ff3a3cf4e54095081c164d4,2021-01-05_00h25.14.082,Colour_Similarity_Experiment_v1,2020.1.2,Win32,60,5ff3a352adaa099f7659f8cc,,,,,,,,,,,,,,,,,,,,FF,,,,,,,,4,1.268395,,,,,,,,,,,,,,,,,,,,,,,,,,,,2,41,-61,1,0,0,response3disk,1,203,13,6,1,0,0,rectangle,13,6,1,0,0,6,3,0,0.000665,13,6,1,0,0,0,40,40,85,1,,,,,,,,,,,,,,,,,,,,,
,,,,,,,,,,,,,,,,,,,,,,,,,,,,,,,,,,,,,,,,,,,5fd200f17bdf7823f5b3d5e8,5ff3a3cf4e54095081c164d4,2021-01-05_00h25.14.082,Colour_Similarity_Experiment_v1,2020.1.2,Win32,60,5ff3a352adaa099f7659f8cc,,,,,,,,,,,,,,,,,,,,FF,,,,,,,,6,1.250795,,,,,,,,,,,,,,,,,,,,,,,,,,,,7,72,34,1,0,0,response1disk,4,204,12,-2,1,0,0,rectangle,12,-2,1,0,0,6,3,0,0.000385,12,-2,1,0,0,0,41,41,158,1,,,,,,,,,,,,,,,,,,,,,
,,,,,,,,,,,,,,,,,,,,,,,,,,,,,,,,,,,,,,,,,,,5fd200f17bdf7823f5b3d5e8,5ff3a3cf4e54095081c164d4,2021-01-05_00h25.14.082,Colour_Similarity_Experiment_v1,2020.1.2,Win32,60,5ff3a352adaa099f7659f8cc,,,,,,,,,,,,,,,,,,,,PF,,,,,,,,0,1.115975,,,,,,,,,,,,,,,,,,,,,,,,,,,,1,-30,71,1,0,0,response7disk,1,205,-10,-3,1,0,0,rectangle,-74,-28,1,0,0,6,2,1,1.683555,-8,0,1,0,0,0,42,42,76,1,response5disk_3,rectangle,,,,,,,,,,,,,,,,,,,
,,,,,,,,,,,,,,,,,,,,,,,,,,,,,,,,,,,,,,,,,,,5fd200f17bdf7823f5b3d5e8,5ff3a3cf4e54095081c164d4,2021-01-05_00h25.14.082,Colour_Similarity_Experiment_v1,2020.1.2,Win32,60,5ff3a352adaa099f7659f8cc,,,,,,,,,,,,,,,,,,,,PF,,,,,,,,5,0.936255,,,,,,,,,,,,,,,,,,,,,,,,,,,,4,76,-37,1,0,0,response3disk,8,206,11,-3,1,0,0,rectangle,11,-3,1,0,0,6,4,0,0.000575,11,-3,1,0,0,0,43,43,124,1,,,,,,,,,,,,,,,,,,,,,
,,,,,,,,,,,,,,,,,,,,,,,,,,,,,,,,,,,,,,,,,,,5fd200f17bdf7823f5b3d5e8,5ff3a3cf4e54095081c164d4,2021-01-05_00h25.14.082,Colour_Similarity_Experiment_v1,2020.1.2,Win32,60,5ff3a352adaa099f7659f8cc,,,,,,,,,,,,,,,,,,,,FF,,,,,,,,6,6.14858,,,,,,,,,,,,,,,,,,,,,,,,,,,,1,60,29,1,0,0,response1disk,8,207,-6,0,1,0,0,rectangle,-6,0,1,0,0,6,3,0,0.000535,-6,0,1,0,0,0,44,44,27,1,,,,,,,,,,,,,,,,,,,,,
,,,,,,,,,,,,,,,,,,,,,,,,,,,,,,,,,,,,,,,,,,,5fd200f17bdf7823f5b3d5e8,5ff3a3cf4e54095081c164d4,2021-01-05_00h25.14.082,Colour_Similarity_Experiment_v1,2020.1.2,Win32,60,5ff3a352adaa099f7659f8cc,,,,,,,,,,,,,,,,,,,,PF,,,,,,,,5,0.92303,,,,,,,,,,,,,,,,,,,,,,,,,,,,3,64,-32,1,0,0,response3disk,6,208,-3,1,1,0,0,rectangle,-3,1,1,0,0,6,2,0,0.00047,-3,1,1,0,0,0,45,45,47,1,,,,,,,,,,,,,,,,,,,,,
,,,,,,,,,,,,,,,,,,,,,,,,,,,,,,,,,,,,,,,,,,,5fd200f17bdf7823f5b3d5e8,5ff3a3cf4e54095081c164d4,2021-01-05_00h25.14.082,Colour_Similarity_Experiment_v1,2020.1.2,Win32,60,5ff3a352adaa099f7659f8cc,,,,,,,,,,,,,,,,,,,,PF,,,,,,,,2,1.31541,,,,,,,,,,,,,,,,,,,,,,,,,,,,7,-74,-22,1,0,0,response5disk,6,209,-27,6,1,0,0,rectangle,-27,6,1,0,0,6,0,0,0.00088,-27,6,1,0,0,0,46,46,29,1,,,,,,,,,,,,,,,,,,,,,
,,,,,,,,,,,,,,,,,,,,,,,,,,,,,,,,,,,,,,,,,,,5fd200f17bdf7823f5b3d5e8,5ff3a3cf4e54095081c164d4,2021-01-05_00h25.14.082,Colour_Similarity_Experiment_v1,2020.1.2,Win32,60,5ff3a352adaa099f7659f8cc,,,,,,,,,,,,,,,,,,,,FF,,,,,,,,5,1.750625,,,,,,,,,,,,,,,,,,,,,,,,,,,,6,80,-23,1,0,0,response3disk,3,210,4,-3,1,0,0,rectangle,4,-3,1,0,0,6,3,0,0.00098,4,-3,1,0,0,0,47,47,21,1,,,,,,,,,,,,,,,,,,,,,
,,,,,,,,,,,,,,,,,,,,,,,,,,,,,,,,,,,,,,,,,,,5fd200f17bdf7823f5b3d5e8,5ff3a3cf4e54095081c164d4,2021-01-05_00h25.14.082,Colour_Similarity_Experiment_v1,2020.1.2,Win32,60,5ff3a352adaa099f7659f8cc,,,,,,,,,,,,,,,,,,,,FF,,,,,,,,0,1.500875,,,,,,,,,,,,,,,,,,,,,,,,,,,,2,-42,77,1,0,0,response7disk,2,211,-3,6,1,0,0,rectangle,-3,6,1,0,0,6,4,0,0.00083,-3,6,1,0,0,0,48,48,142,1,,,,,,,,,,,,,,,,,,,,,
,,,,,,,,,,,,,,,,,,,,,,,,,,,,,,,,,,,,,,,,,,,5fd200f17bdf7823f5b3d5e8,5ff3a3cf4e54095081c164d4,2021-01-05_00h25.14.082,Colour_Similarity_Experiment_v1,2020.1.2,Win32,60,5ff3a352adaa099f7659f8cc,,,,,,,,,,,,,,,,,,,,FF,,,,,,,,5,1.248895,,,,,,,,,,,,,,,,,,,,,,,,,,,,8,82,-45,1,0,0,response3disk,3,212,7,5,1,0,0,rectangle,7,5,1,0,0,6,7,0,0.00044,7,5,1,0,0,0,49,49,154,1,,,,,,,,,,,,,,,,,,,,,
,,,,,,,,,,,,,,,,,,,,,,,,,,,,,,,,,,,,,,,,,,,5fd200f17bdf7823f5b3d5e8,5ff3a3cf4e54095081c164d4,2021-01-05_00h25.14.082,Colour_Similarity_Experiment_v1,2020.1.2,Win32,60,5ff3a352adaa099f7659f8cc,,,,,,,,,,,,,,,,,,,,PF,,,,,,,,5,3.750075,,,,,,,,,,,,,,,,,,,,,,,,,,,,8,59,-31,1,0,0,response3disk,1,213,-6,15,1,0,0,rectangle,-6,15,1,0,0,6,3,0,0.000605,-6,15,1,0,0,0,50,50,57,1,,,,,,,,,,,,,,,,,,,,,
,,,,,,,,,,,,,,,,,,,,,,,,,,,,,,,,,,,,,,,,,,,5fd200f17bdf7823f5b3d5e8,5ff3a3cf4e54095081c164d4,2021-01-05_00h25.14.082,Colour_Similarity_Experiment_v1,2020.1.2,Win32,60,5ff3a352adaa099f7659f8cc,,,,,,,,,,,,,,,,,,,,PF,,,,,,,,7,0.973065,,,,,,,,,,,,,,,,,,,,,,,,,,,,9,43,71,1,0,0,response1disk,3,214,-8,-5,1,0,0,rectangle,-8,-5,1,0,0,6,6,0,0.000415,-8,-5,1,0,0,0,51,51,119,1,,,,,,,,,,,,,,,,,,,,,
,,,,,,,,,,,,,,,,,,,,,,,,,,,,,,,,,,,,,,,,,,,5fd200f17bdf7823f5b3d5e8,5ff3a3cf4e54095081c164d4,2021-01-05_00h25.14.082,Colour_Similarity_Experiment_v1,2020.1.2,Win32,60,5ff3a352adaa099f7659f8cc,,,,,,,,,,,,,,,,,,,,FF,,,,,,,,7,0.849075,,,,,,,,,,,,,,,,,,,,,,,,,,,,7,42,63,1,0,0,response1disk,9,215,10,10,1,0,0,rectangle,10,10,1,0,0,6,1,0,0.00038,10,10,1,0,0,0,52,52,155,1,,,,,,,,,,,,,,,,,,,,,
,,,,,,,,,,,,,,,,,,,,,,,,,,,,,,,,,,,,,,,,,,,5fd200f17bdf7823f5b3d5e8,5ff3a3cf4e54095081c164d4,2021-01-05_00h25.14.082,Colour_Similarity_Experiment_v1,2020.1.2,Win32,60,5ff3a352adaa099f7659f8cc,,,,,,,,,,,,,,,,,,,,FF,,,,,,,,2,1.067825,,,,,,,,,,,,,,,,,,,,,,,,,,,,5,-59,-23,1,0,0,response5disk,3,216,-19,13,1,0,0,rectangle,-19,13,1,0,0,6,1,0,0.000635,-19,13,1,0,0,0,53,53,25,1,,,,,,,,,,,,,,,,,,,,,
,,,,,,,,,,,,,,,,,,,,,,,,,,,,,,,,,,,,,,,,,,,5fd200f17bdf7823f5b3d5e8,5ff3a3cf4e54095081c164d4,2021-01-05_00h25.14.082,Colour_Similarity_Experiment_v1,2020.1.2,Win32,60,5ff3a352adaa099f7659f8cc,,,,,,,,,,,,,,,,,,,,FF,,,,,,,,2,0.949455,,,,,,,,,,,,,,,,,,,,,,,,,,,,4,-53,-39,1,0,0,response5disk,3,217,-5,-5,1,0,0,rectangle,-5,-5,1,0,0,6,2,0,0.000825,-5,-5,1,0,0,0,54,54,77,1,,,,,,,,,,,,,,,,,,,,,
,,,,,,,,,,,,,,,,,,,,,,,,,,,,,,,,,,,,,,,,,,,5fd200f17bdf7823f5b3d5e8,5ff3a3cf4e54095081c164d4,2021-01-05_00h25.14.082,Colour_Similarity_Experiment_v1,2020.1.2,Win32,60,5ff3a352adaa099f7659f8cc,,,,,,,,,,,,,,,,,,,,PF,,,,,,,,6,1.217075,,,,,,,,,,,,,,,,,,,,,,,,,,,,3,67,21,1,0,0,response1disk,9,218,19,-11,1,0,0,rectangle,19,-11,1,0,0,6,0,0,0.00043,19,-11,1,0,0,0,55,55,79,1,,,,,,,,,,,,,,,,,,,,,
,,,,,,,,,,,,,,,,,,,,,,,,,,,,,,,,,,,,,,,,,,,5fd200f17bdf7823f5b3d5e8,5ff3a3cf4e54095081c164d4,2021-01-05_00h25.14.082,Colour_Similarity_Experiment_v1,2020.1.2,Win32,60,5ff3a352adaa099f7659f8cc,,,,,,,,,,,,,,,,,,,,FF,,,,,,,,7,0.89968,,,,,,,,,,,,,,,,,,,,,,,,,,,,7,34,81,1,0,0,response1disk,1,219,4,6,1,0,0,rectangle,4,6,1,0,0,6,2,0,0.000475,4,6,1,0,0,0,56,56,132,1,,,,,,,,,,,,,,,,,,,,,
,,,,,,,,,,,,,,,,,,,,,,,,,,,,,,,,,,,,,,,,,,,5fd200f17bdf7823f5b3d5e8,5ff3a3cf4e54095081c164d4,2021-01-05_00h25.14.082,Colour_Similarity_Experiment_v1,2020.1.2,Win32,60,5ff3a352adaa099f7659f8cc,,,,,,,,,,,,,,,,,,,,PF,,,,,,,,7,0.799285,,,,,,,,,,,,,,,,,,,,,,,,,,,,2,43,71,1,0,0,response1disk,6,220,0,3,1,0,0,rectangle,0,3,1,0,0,6,6,0,0.00081,0,3,1,0,0,0,57,57,113,1,,,,,,,,,,,,,,,,,,,,,
,,,,,,,,,,,,,,,,,,,,,,,,,,,,,,,,,,,,,,,,,,,5fd200f17bdf7823f5b3d5e8,5ff3a3cf4e54095081c164d4,2021-01-05_00h25.14.082,Colour_Similarity_Experiment_v1,2020.1.2,Win32,60,5ff3a352adaa099f7659f8cc,,,,,,,,,,,,,,,,,,,,PF,,,,,,,,7,0.801285,,,,,,,,,,,,,,,,,,,,,,,,,,,,9,41,65,1,0,0,response1disk,7,221,-5,6,1,0,0,rectangle,-5,6,1,0,0,6,6,0,0.000425,-5,6,1,0,0,0,58,58,121,1,,,,,,,,,,,,,,,,,,,,,
,,,,,,,,,,,,,,,,,,,,,,,,,,,,,,,,,,,,,,,,,,,5fd200f17bdf7823f5b3d5e8,5ff3a3cf4e54095081c164d4,2021-01-05_00h25.14.082,Colour_Similarity_Experiment_v1,2020.1.2,Win32,60,5ff3a352adaa099f7659f8cc,,,,,,,,,,,,,,,,,,,,FF,,,,,,,,3,1.199545,,,,,,,,,,,,,,,,,,,,,,,,,,,,9,-26,-84,1,0,0,response5disk,1,222,-9,-1,1,0,0,rectangle,-9,-1,1,0,0,6,6,0,0.000505,-9,-1,1,0,0,0,59,59,111,1,,,,,,,,,,,,,,,,,,,,,
,,,,,,,,,,,,,,,,,,,,,,,,,,,,,,,,,,,,,,,,,,,5fd200f17bdf7823f5b3d5e8,5ff3a3cf4e54095081c164d4,2021-01-05_00h25.14.082,Colour_Similarity_Experiment_v1,2020.1.2,Win32,60,5ff3a352adaa099f7659f8cc,,,,,,,,,,,,,,,,,,,,FF,,,,,,,,4,1.09922,,,,,,,,,,,,,,,,,,,,,,,,,,,,7,44,-64,1,0,0,response3disk,8,223,18,-7,1,0,0,rectangle,67,-25,1,0,0,5,5,1,1.233955,18,3,1,0,0,0,60,60,97,1,response3disk_3,rectangle,,,,,,,,,,,,,,,,,,,
,,,,,,,,,,,,,,,,,,,,,,,,,,,,,,,,,,,,,,,,,,,5fd200f17bdf7823f5b3d5e8,5ff3a3cf4e54095081c164d4,2021-01-05_00h25.14.082,Colour_Similarity_Experiment_v1,2020.1.2,Win32,60,5ff3a352adaa099f7659f8cc,,,,,,,,,,,,,,,,,,,,PF,,,,,,,,5,1.48452,,,,,,,,,,,,,,,,,,,,,,,,,,,,6,68,-25,1,0,0,response3disk,4,224,33,-3,1,0,0,rectangle,33,-3,1,0,0,5,2,0,0.000625,33,-3,1,0,0,0,61,61,33,1,,,,,,,,,,,,,,,,,,,,,
,,,,,,,,,,,,,,,,,,,,,,,,,,,,,,,,,,,,,,,,,,,5fd200f17bdf7823f5b3d5e8,5ff3a3cf4e54095081c164d4,2021-01-05_00h25.14.082,Colour_Similarity_Experiment_v1,2020.1.2,Win32,60,5ff3a352adaa099f7659f8cc,,,,,,,,,,,,,,,,,,,,FF,,,,,,,,2,1.200555,,,,,,,,,,,,,,,,,,,,,,,,,,,,6,-59,-45,1,0,0,response5disk,7,225,-11,-15,1,0,0,rectangle,-11,-15,1,0,0,5,1,0,0.00053,-11,-15,1,0,0,0,62,62,18,1,,,,,,,,,,,,,,,,,,,,,
,,,,,,,,,,,,,,,,,,,,,,,,,,,,,,,,,,,,,,,,,,,5fd200f17bdf7823f5b3d5e8,5ff3a3cf4e54095081c164d4,2021-01-05_00h25.14.082,Colour_Similarity_Experiment_v1,2020.1.2,Win32,60,5ff3a352adaa099f7659f8cc,,,,,,,,,,,,,,,,,,,,FF,,,,,,,,3,3.3154,,,,,,,,,,,,,,,,,,,,,,,,,,,,5,-23,-79,1,0,0,response5disk,6,226,2,-4,1,0,0,rectangle,2,-4,1,0,0,5,7,0,0.000715,2,-4,1,0,0,0,63,63,12,1,,,,,,,,,,,,,,,,,,,,,
,,,,,,,,,,,,,,,,,,,,,,,,,,,,,,,,,,,,,,,,,,,5fd200f17bdf7823f5b3d5e8,5ff3a3cf4e54095081c164d4,2021-01-05_00h25.14.082,Colour_Similarity_Experiment_v1,2020.1.2,Win32,60,5ff3a352adaa099f7659f8cc,,,,,,,,,,,,,,,,,,,,PF,,,,,,,,0,1.05076,,,,,,,,,,,,,,,,,,,,,,,,,,,,5,-47,66,1,0,0,response7disk,5,227,-34,-8,1,0,0,rectangle,-34,-8,1,0,0,5,5,0,0.00074,-34,-8,1,0,0,0,64,64,94,1,,,,,,,,,,,,,,,,,,,,,
,,,,,,,,,,,,,,,,,,,,,,,,,,,,,,,,,,,,,,,,,,,5fd200f17bdf7823f5b3d5e8,5ff3a3cf4e54095081c164d4,2021-01-05_00h25.14.082,Colour_Similarity_Experiment_v1,2020.1.2,Win32,60,5ff3a352adaa099f7659f8cc,,,,,,,,,,,,,,,,,,,,PF,,,,,,,,5,2.0807,,,,,,,,,,,,,,,,,,,,,,,,,,,,9,59,-43,1,0,0,response3disk,5,228,0,5,1,0,0,rectangle,0,5,1,0,0,5,1,0,0.00108,0,5,1,0,0,0,65,65,134,1,,,,,,,,,,,,,,,,,,,,,
,,,,,,,,,,,,,,,,,,,,,,,,,,,,,,,,,,,,,,,,,,,5fd200f17bdf7823f5b3d5e8,5ff3a3cf4e54095081c164d4,2021-01-05_00h25.14.082,Colour_Similarity_Experiment_v1,2020.1.2,Win32,60,5ff3a352adaa099f7659f8cc,,,,,,,,,,,,,,,,,,,,PF,,,,,,,,0,0.88891,,,,,,,,,,,,,,,,,,,,,,,,,,,,9,-49,70,1,0,0,response7disk,9,229,-24,7,1,0,0,rectangle,-24,7,1,0,0,5,3,0,0.000655,-24,7,1,0,0,0,66,66,106,1,,,,,,,,,,,,,,,,,,,,,
,,,,,,,,,,,,,,,,,,,,,,,,,,,,,,,,,,,,,,,,,,,5fd200f17bdf7823f5b3d5e8,5ff3a3cf4e54095081c164d4,2021-01-05_00h25.14.082,Colour_Similarity_Experiment_v1,2020.1.2,Win32,60,5ff3a352adaa099f7659f8cc,,,,,,,,,,,,,,,,,,,,PF,,,,,,,,4,1.1958,,,,,,,,,,,,,,,,,,,,,,,,,,,,2,21,-97,1,0,0,response3disk,1,230,-8,-9,1,0,0,rectangle,-8,-9,1,0,0,5,0,0,0.000675,-8,-9,1,0,0,0,67,67,9,1,,,,,,,,,,,,,,,,,,,,,
,,,,,,,,,,,,,,,,,,,,,,,,,,,,,,,,,,,,,,,,,,,5fd200f17bdf7823f5b3d5e8,5ff3a3cf4e54095081c164d4,2021-01-05_00h25.14.082,Colour_Similarity_Experiment_v1,2020.1.2,Win32,60,5ff3a352adaa099f7659f8cc,,,,,,,,,,,,,,,,,,,,PF,,,,,,,,6,0.78437,,,,,,,,,,,,,,,,,,,,,,,,,,,,5,43,33,1,0,0,response1disk,2,231,-5,3,1,0,0,rectangle,-5,3,1,0,0,5,5,0,0.000575,-5,3,1,0,0,0,68,68,129,1,,,,,,,,,,,,,,,,,,,,,
,,,,,,,,,,,,,,,,,,,,,,,,,,,,,,,,,,,,,,,,,,,5fd200f17bdf7823f5b3d5e8,5ff3a3cf4e54095081c164d4,2021-01-05_00h25.14.082,Colour_Similarity_Experiment_v1,2020.1.2,Win32,60,5ff3a352adaa099f7659f8cc,,,,,,,,,,,,,,,,,,,,FF,,,,,,,,5,2.882725,,,,,,,,,,,,,,,,,,,,,,,,,,,,8,85,-31,1,0,0,response3disk,1,232,-3,5,1,0,0,rectangle,-3,5,1,0,0,5,4,0,0.00067,-3,5,1,0,0,0,69,69,20,1,,,,,,,,,,,,,,,,,,,,,
,,,,,,,,,,,,,,,,,,,,,,,,,,,,,,,,,,,,,,,,,,,5fd200f17bdf7823f5b3d5e8,5ff3a3cf4e54095081c164d4,2021-01-05_00h25.14.082,Colour_Similarity_Experiment_v1,2020.1.2,Win32,60,5ff3a352adaa099f7659f8cc,,,,,,,,,,,,,,,,,,,,FF,,,,,,,,3,1.067575,,,,,,,,,,,,,,,,,,,,,,,,,,,,1,-34,-75,1,0,0,response5disk,2,233,-1,15,1,0,0,rectangle,-1,15,1,0,0,5,7,0,0.000585,-1,15,1,0,0,0,70,70,2,1,,,,,,,,,,,,,,,,,,,,,
,,,,,,,,,,,,,,,,,,,,,,,,,,,,,,,,,,,,,,,,,,,5fd200f17bdf7823f5b3d5e8,5ff3a3cf4e54095081c164d4,2021-01-05_00h25.14.082,Colour_Similarity_Experiment_v1,2020.1.2,Win32,60,5ff3a352adaa099f7659f8cc,,,,,,,,,,,,,,,,,,,,PF,,,,,,,,4,2.16627,,,,,,,,,,,,,,,,,,,,,,,,,,,,9,51,-78,1,0,0,response3disk,6,234,-3,1,1,0,0,rectangle,-3,1,1,0,0,5,7,0,0.000405,-3,1,1,0,0,0,71,71,148,1,,,,,,,,,,,,,,,,,,,,,
,,,,,,,,,,,,,,,,,,,,,,,,,,,,,,,,,,,,,,,,,,,5fd200f17bdf7823f5b3d5e8,5ff3a3cf4e54095081c164d4,2021-01-05_00h25.14.082,Colour_Similarity_Experiment_v1,2020.1.2,Win32,60,5ff3a352adaa099f7659f8cc,,,,,,,,,,,,,,,,,,,,FF,,,,,,,,6,0.96691,,,,,,,,,,,,,,,,,,,,,,,,,,,,2,64,32,1,0,0,response1disk,5,235,15,3,1,0,0,rectangle,15,3,1,0,0,5,0,0,0.00047,15,3,1,0,0,0,72,72,80,1,,,,,,,,,,,,,,,,,,,,,
,,,,,,,,,,,,,,,,,,,,,,,,,,,,,,,,,,,,,,,,,,,5fd200f17bdf7823f5b3d5e8,5ff3a3cf4e54095081c164d4,2021-01-05_00h25.14.082,Colour_Similarity_Experiment_v1,2020.1.2,Win32,60,5ff3a352adaa099f7659f8cc,,,,,,,,,,,,,,,,,,,,PF,,,,,,,,7,0.95041,,,,,,,,,,,,,,,,,,,,,,,,,,,,1,29,76,1,0,0,response1disk,6,236,-9,-2,1,0,0,rectangle,-9,-2,1,0,0,5,2,0,0.000515,-9,-2,1,0,0,0,73,73,144,1,,,,,,,,,,,,,,,,,,,,,
,,,,,,,,,,,,,,,,,,,,,,,,,,,,,,,,,,,,,,,,,,,5fd200f17bdf7823f5b3d5e8,5ff3a3cf4e54095081c164d4,2021-01-05_00h25.14.082,Colour_Similarity_Experiment_v1,2020.1.2,Win32,60,5ff3a352adaa099f7659f8cc,,,,,,,,,,,,,,,,,,,,PF,,,,,,,,5,0.8,,,,,,,,,,,,,,,,,,,,,,,,,,,,9,52,-49,1,0,0,response3disk,8,237,0,-9,1,0,0,rectangle,0,-9,1,0,0,5,6,0,0.00044,0,-9,1,0,0,0,74,74,67,1,,,,,,,,,,,,,,,,,,,,,
,,,,,,,,,,,,,,,,,,,,,,,,,,,,,,,,,,,,,,,,,,,5fd200f17bdf7823f5b3d5e8,5ff3a3cf4e54095081c164d4,2021-01-05_00h25.14.082,Colour_Similarity_Experiment_v1,2020.1.2,Win32,60,5ff3a352adaa099f7659f8cc,,,,,,,,,,,,,,,,,,,,FF,,,,,,,,0,1.782425,,,,,,,,,,,,,,,,,,,,,,,,,,,,6,-33,62,1,0,0,response7disk,6,238,-10,-7,1,0,0,rectangle,-10,-7,1,0,0,5,5,0,0.00046,-10,-7,1,0,0,0,75,75,91,1,,,,,,,,,,,,,,,,,,,,,
,,,,,,,,,,,,,,,,,,,,,,,,,,,,,,,,,,,,,,,,,,,5fd200f17bdf7823f5b3d5e8,5ff3a3cf4e54095081c164d4,2021-01-05_00h25.14.082,Colour_Similarity_Experiment_v1,2020.1.2,Win32,60,5ff3a352adaa099f7659f8cc,,,,,,,,,,,,,,,,,,,,FF,,,,,,,,0,0.73357,,,,,,,,,,,,,,,,,,,,,,,,,,,,1,-34,75,1,0,0,response7disk,6,239,-18,3,1,0,0,rectangle,-18,3,1,0,0,5,7,0,0.000705,-18,3,1,0,0,0,76,76,58,1,,,,,,,,,,,,,,,,,,,,,
